[
  {
    "domain": "AE",
    "name": "STUDYID",
    "label": "Study Identifier",
    "type": "Char",
    "length": "",
    "role": "Identifier",
    "core": "Req",
    "ordinal": "1",
    "description": "Unique identifier for a study.",
    "mandatory": false,
    "codelist": null,
    "origin": "CRF",
    "implementation_notes": ""
  },
  {
    "domain": "AE",
    "name": "DOMAIN",
    "label": "Domain Abbreviation",
    "type": "Char",
    "length": "",
    "role": "Identifier",
    "core": "Req",
    "ordinal": "2",
    "description": "Two-character abbreviation for the domain.",
    "mandatory": false,
    "codelist": null,
    "origin": "CRF",
    "implementation_notes": ""
  },
  {
    "domain": "AE",
    "name": "USUBJID",
    "label": "Unique Subject Identifier",
    "type": "Char",
    "length": "",
    "role": "Identifier",
    "core": "Req",
    "ordinal": "3",
    "description": "Identifier used to uniquely identify a subject across all studies for all applications or submissions involving the product.",
    "mandatory": false,
    "codelist": null,
    "origin": "CRF",
    "implementation_notes": ""
  },
  {
    "domain": "AE",
    "name": "SPDEVID",
    "label": "Sponsor Device Identifier",
    "type": "Char",
    "length": "",
    "role": "Identifier",
    "core": "Perm",
    "ordinal": "4",
    "description": "A sequence of characters used by the sponsor to uniquely identify a specific device. Used to represent a device associated in some way with the adverse event. SPDEVID values are defined in the Device Identifiers (DI) domain.",
    "mandatory": false,
    "codelist": null,
    "origin": "CRF",
    "implementation_notes": ""
  },
  {
    "domain": "AE",
    "name": "AESEQ",
    "label": "Sequence Number",
    "type": "Num",
    "length": "",
    "role": "Identifier",
    "core": "Req",
    "ordinal": "5",
    "description": "Sequence number given to ensure uniqueness of subject records within a domain. May be any valid number.",
    "mandatory": false,
    "codelist": null,
    "origin": "CRF",
    "implementation_notes": ""
  },
  {
    "domain": "AE",
    "name": "AEGRPID",
    "label": "Group ID",
    "type": "Char",
    "length": "",
    "role": "Identifier",
    "core": "Perm",
    "ordinal": "6",
    "description": "Used to tie together a block of related records in a single domain for a subject.",
    "mandatory": false,
    "codelist": null,
    "origin": "CRF",
    "implementation_notes": ""
  },
  {
    "domain": "AE",
    "name": "AEREFID",
    "label": "Reference ID",
    "type": "Char",
    "length": "",
    "role": "Identifier",
    "core": "Perm",
    "ordinal": "7",
    "description": "Internal or external identifier such as a serial number on an SAE reporting form.",
    "mandatory": false,
    "codelist": null,
    "origin": "CRF",
    "implementation_notes": ""
  },
  {
    "domain": "AE",
    "name": "AESPID",
    "label": "Sponsor-Defined Identifier",
    "type": "Char",
    "length": "",
    "role": "Identifier",
    "core": "Perm",
    "ordinal": "8",
    "description": "Sponsor-defined identifier. It may be preprinted on the CRF as an explicit line identifier or defined in the sponsor's operational database. Example: Line number on an Adverse Events CRF page.",
    "mandatory": false,
    "codelist": null,
    "origin": "CRF",
    "implementation_notes": ""
  },
  {
    "domain": "AE",
    "name": "AETERM",
    "label": "Reported Term for the Adverse Event",
    "type": "Char",
    "length": "",
    "role": "Topic",
    "core": "Req",
    "ordinal": "9",
    "description": "Verbatim name of the event.",
    "mandatory": false,
    "codelist": null,
    "origin": "CRF",
    "implementation_notes": ""
  },
  {
    "domain": "AE",
    "name": "AEMODIFY",
    "label": "Modified Reported Term",
    "type": "Char",
    "length": "",
    "role": "Synonym Qualifier",
    "core": "Perm",
    "ordinal": "10",
    "description": "If AETERM is modified to facilitate coding, then AEMODIFY will contain the modified text.",
    "mandatory": false,
    "codelist": null,
    "origin": "CRF",
    "implementation_notes": ""
  },
  {
    "domain": "AE",
    "name": "AELLT",
    "label": "Lowest Level Term",
    "type": "Char",
    "length": "",
    "role": "Variable Qualifier",
    "core": "Exp",
    "ordinal": "11",
    "description": "Dictionary-derived text description of the lowest level term.",
    "mandatory": false,
    "codelist": null,
    "origin": "CRF",
    "implementation_notes": ""
  },
  {
    "domain": "AE",
    "name": "AELLTCD",
    "label": "Lowest Level Term Code",
    "type": "Num",
    "length": "",
    "role": "Variable Qualifier",
    "core": "Exp",
    "ordinal": "12",
    "description": "Dictionary-derived code for the lowest level term.",
    "mandatory": false,
    "codelist": null,
    "origin": "CRF",
    "implementation_notes": ""
  },
  {
    "domain": "AE",
    "name": "AEDECOD",
    "label": "Dictionary-Derived Term",
    "type": "Char",
    "length": "",
    "role": "Synonym Qualifier",
    "core": "Req",
    "ordinal": "13",
    "description": "Dictionary-derived text description of AETERM or AEMODIFY. Equivalent to the Preferred Term (PT in MedDRA). The sponsor is expected to provide the dictionary name and version used to map the terms utilizing the external codelist element in the Define-XML document.",
    "mandatory": false,
    "codelist": null,
    "origin": "CRF",
    "implementation_notes": ""
  },
  {
    "domain": "AE",
    "name": "AEPTCD",
    "label": "Preferred Term Code",
    "type": "Num",
    "length": "",
    "role": "Variable Qualifier",
    "core": "Exp",
    "ordinal": "14",
    "description": "Dictionary-derived code for the preferred term.",
    "mandatory": false,
    "codelist": null,
    "origin": "CRF",
    "implementation_notes": ""
  },
  {
    "domain": "AE",
    "name": "AEHLT",
    "label": "High Level Term",
    "type": "Char",
    "length": "",
    "role": "Variable Qualifier",
    "core": "Exp",
    "ordinal": "15",
    "description": "Dictionary-derived text description of the high level term for the primary system organ class (SOC).",
    "mandatory": false,
    "codelist": null,
    "origin": "CRF",
    "implementation_notes": ""
  },
  {
    "domain": "AE",
    "name": "AEHLTCD",
    "label": "High Level Term Code",
    "type": "Num",
    "length": "",
    "role": "Variable Qualifier",
    "core": "Exp",
    "ordinal": "16",
    "description": "Dictionary-derived code for the high level term for the primary SOC.",
    "mandatory": false,
    "codelist": null,
    "origin": "CRF",
    "implementation_notes": ""
  },
  {
    "domain": "AE",
    "name": "AEHLGT",
    "label": "High Level Group Term",
    "type": "Char",
    "length": "",
    "role": "Variable Qualifier",
    "core": "Exp",
    "ordinal": "17",
    "description": "Dictionary-derived text description of the high level group term for the primary SOC.",
    "mandatory": false,
    "codelist": null,
    "origin": "CRF",
    "implementation_notes": ""
  },
  {
    "domain": "AE",
    "name": "AEHLGTCD",
    "label": "High Level Group Term Code",
    "type": "Num",
    "length": "",
    "role": "Variable Qualifier",
    "core": "Exp",
    "ordinal": "18",
    "description": "Dictionary-derived code for the high level group term for the primary SOC.",
    "mandatory": false,
    "codelist": null,
    "origin": "CRF",
    "implementation_notes": ""
  },
  {
    "domain": "AE",
    "name": "AECAT",
    "label": "Category for Adverse Event",
    "type": "Char",
    "length": "",
    "role": "Grouping Qualifier",
    "core": "Perm",
    "ordinal": "19",
    "description": "Used to define a category of related records. Examples: \"BLEEDING\", \"NEUROPSYCHIATRIC\".",
    "mandatory": false,
    "codelist": null,
    "origin": "CRF",
    "implementation_notes": ""
  },
  {
    "domain": "AE",
    "name": "AESCAT",
    "label": "Subcategory for Adverse Event",
    "type": "Char",
    "length": "",
    "role": "Grouping Qualifier",
    "core": "Perm",
    "ordinal": "20",
    "description": "A further categorization of adverse event. Example: \"NEUROLOGIC\".",
    "mandatory": false,
    "codelist": null,
    "origin": "CRF",
    "implementation_notes": ""
  },
  {
    "domain": "AE",
    "name": "AEPRESP",
    "label": "Pre-Specified Adverse Event",
    "type": "Char",
    "length": "",
    "role": "Variable Qualifier",
    "core": "Perm",
    "ordinal": "21",
    "description": "A value of \"Y\" indicates that this adverse event was prespecified on the CRF. Values are null for spontaneously reported events (i.e., those collected as free-text verbatim terms).",
    "mandatory": false,
    "codelist": {
      "code": "C66742",
      "name": "Version-agnostic anchor resource for codelist C66742",
      "href": "/mdr/root/ct/sdtmct/codelists/C66742"
    },
    "origin": "CRF",
    "implementation_notes": ""
  },
  {
    "domain": "AE",
    "name": "AEBODSYS",
    "label": "Body System or Organ Class",
    "type": "Char",
    "length": "",
    "role": "Record Qualifier",
    "core": "Exp",
    "ordinal": "22",
    "description": "Dictionary derived. Body system or organ class used by the sponsor from the coding dictionary (e.g., MedDRA). When using a multi-axial dictionary such as MedDRA, this should contain the SOC used for the sponsor's analyses and summary tables, which may not necessarily be the primary SOC.",
    "mandatory": false,
    "codelist": null,
    "origin": "CRF",
    "implementation_notes": ""
  },
  {
    "domain": "AE",
    "name": "AEBDSYCD",
    "label": "Body System or Organ Class Code",
    "type": "Num",
    "length": "",
    "role": "Variable Qualifier",
    "core": "Exp",
    "ordinal": "23",
    "description": "Dictionary derived. Code for the body system or organ class used by the sponsor. When using a multi-axial dictionary such as MedDRA, this should contain the SOC used for the sponsor's analyses and summary tables, which may not necessarily be the primary SOC.",
    "mandatory": false,
    "codelist": null,
    "origin": "CRF",
    "implementation_notes": ""
  },
  {
    "domain": "AE",
    "name": "AESOC",
    "label": "Primary System Organ Class",
    "type": "Char",
    "length": "",
    "role": "Variable Qualifier",
    "core": "Exp",
    "ordinal": "24",
    "description": "Dictionary-derived text description of the primary SOC. Will be the same as AEBODSYS if the primary SOC was used for analysis.",
    "mandatory": false,
    "codelist": null,
    "origin": "CRF",
    "implementation_notes": ""
  },
  {
    "domain": "AE",
    "name": "AESOCCD",
    "label": "Primary System Organ Class Code",
    "type": "Num",
    "length": "",
    "role": "Variable Qualifier",
    "core": "Exp",
    "ordinal": "25",
    "description": "Dictionary-derived code for the primary SOC. Will be the same as AEBDSYCD if the primary SOC was used for analysis.",
    "mandatory": false,
    "codelist": null,
    "origin": "CRF",
    "implementation_notes": ""
  },
  {
    "domain": "AE",
    "name": "AELOC",
    "label": "Location of Event",
    "type": "Char",
    "length": "",
    "role": "Record Qualifier",
    "core": "Perm",
    "ordinal": "26",
    "description": "Describes anatomical location relevant for the event (e.g., \"ARM\" for skin rash).",
    "mandatory": false,
    "codelist": {
      "code": "C74456",
      "name": "Version-agnostic anchor resource for codelist C74456",
      "href": "/mdr/root/ct/sdtmct/codelists/C74456"
    },
    "origin": "CRF",
    "implementation_notes": ""
  },
  {
    "domain": "AE",
    "name": "AESEV",
    "label": "Severity/Intensity",
    "type": "Char",
    "length": "",
    "role": "Record Qualifier",
    "core": "Perm",
    "ordinal": "27",
    "description": "The severity or intensity of the event. Examples: \"MILD\", \"MODERATE\", \"SEVERE\".",
    "mandatory": false,
    "codelist": {
      "code": "C66769",
      "name": "Version-agnostic anchor resource for codelist C66769",
      "href": "/mdr/root/ct/sdtmct/codelists/C66769"
    },
    "origin": "CRF",
    "implementation_notes": ""
  },
  {
    "domain": "AE",
    "name": "AESER",
    "label": "Serious Event",
    "type": "Char",
    "length": "",
    "role": "Record Qualifier",
    "core": "Exp",
    "ordinal": "28",
    "description": "Is this a serious event? Valid values are \"Y\" and \"N\".",
    "mandatory": false,
    "codelist": {
      "code": "C66742",
      "name": "Version-agnostic anchor resource for codelist C66742",
      "href": "/mdr/root/ct/sdtmct/codelists/C66742"
    },
    "origin": "CRF",
    "implementation_notes": ""
  },
  {
    "domain": "AE",
    "name": "AEACN",
    "label": "Action Taken with Study Treatment",
    "type": "Char",
    "length": "",
    "role": "Record Qualifier",
    "core": "Exp",
    "ordinal": "29",
    "description": "Describes changes to the study treatment as a result of the event. AEACN is specifically for the relationship to study treatment. AEACNOTH is for actions unrelated to dose adjustments of study treatment. Examples of AEACN values include ICH E2B values: \"DRUG WITHDRAWN\", \"DOSE REDUCED\", \"DOSE INCREASED\", \"DOSE NOT CHANGED\", \"UNKNOWN\" and \"NOT APPLICABLE\".",
    "mandatory": false,
    "codelist": {
      "code": "C66767",
      "name": "Version-agnostic anchor resource for codelist C66767",
      "href": "/mdr/root/ct/sdtmct/codelists/C66767"
    },
    "origin": "CRF",
    "implementation_notes": ""
  },
  {
    "domain": "AE",
    "name": "AEACNOTH",
    "label": "Other Action Taken",
    "type": "Char",
    "length": "",
    "role": "Record Qualifier",
    "core": "Perm",
    "ordinal": "30",
    "description": "Describes other actions taken as a result of the event that are unrelated to dose adjustments of study treatment. Usually reported as free text. Example: \"TREATMENT UNBLINDED. PRIMARY CARE PHYSICIAN NOTIFIED\".",
    "mandatory": false,
    "codelist": null,
    "origin": "CRF",
    "implementation_notes": ""
  },
  {
    "domain": "AE",
    "name": "AEACNDEV",
    "label": "Action Taken with Device",
    "type": "Char",
    "length": "",
    "role": "Record Qualifier",
    "core": "Perm",
    "ordinal": "31",
    "description": "An action taken with a device as the result of the event. The device may or may not be a device under study.",
    "mandatory": false,
    "codelist": {
      "code": "C111110",
      "name": "Version-agnostic anchor resource for codelist C111110",
      "href": "/mdr/root/ct/sdtmct/codelists/C111110"
    },
    "origin": "CRF",
    "implementation_notes": ""
  },
  {
    "domain": "AE",
    "name": "AEREL",
    "label": "Causality",
    "type": "Char",
    "length": "",
    "role": "Record Qualifier",
    "core": "Exp",
    "ordinal": "32",
    "description": "Records the investigator's opinion as to the causality of the event to the treatment. ICH does not establish any required or recommended terms for non-device relatedness. ICH E2A and E2B examples include (up-cased here for alignment to SDTM conventions) terms such as \"NOT RELATED\", \"UNLIKELY RELATED\", \"POSSIBLY RELATED\", \"RELATED\", but these example terms do not establish any conventions or expectations. Controlled terminology may be defined in the future. Check with regulatory authority for population of this variable.",
    "mandatory": false,
    "codelist": null,
    "origin": "CRF",
    "implementation_notes": ""
  },
  {
    "domain": "AE",
    "name": "AERLDEV",
    "label": "Relationship of Event to Device",
    "type": "Char",
    "length": "",
    "role": "Record Qualifier",
    "core": "Perm",
    "ordinal": "33",
    "description": "A judgment as to the likelihood that the device caused the adverse event. The relationship is to a device identified in the data (i.e., has an SPDEVID). The device may be ancillary or under study. \\n Terminology: \\n * In the EU, follow the European Commission Guidelines on Medical Devices, Clinical Investigations: SAE Reporting (MEDDEV 2.7/3) (e.g., Not Related, Unlikely, Possible, Probable, Causal Relationship), with device-specific definitions. \\n * No required Controlled Terminology in US.",
    "mandatory": false,
    "codelist": null,
    "origin": "CRF",
    "implementation_notes": ""
  },
  {
    "domain": "AE",
    "name": "AERELNST",
    "label": "Relationship to Non-Study Treatment",
    "type": "Char",
    "length": "",
    "role": "Record Qualifier",
    "core": "Perm",
    "ordinal": "34",
    "description": "Records the investigator's opinion as to whether the event may have been due to a treatment other than study drug. May be reported as free text. Example: \"MORE LIKELY RELATED TO ASPIRIN USE\".",
    "mandatory": false,
    "codelist": null,
    "origin": "CRF",
    "implementation_notes": ""
  },
  {
    "domain": "AE",
    "name": "AEPATT",
    "label": "Pattern of Adverse Event",
    "type": "Char",
    "length": "",
    "role": "Record Qualifier",
    "core": "Perm",
    "ordinal": "35",
    "description": "Used to indicate the pattern of the event over time. Examples: \"INTERMITTENT\", \"CONTINUOUS\", \"SINGLE EVENT\".",
    "mandatory": false,
    "codelist": null,
    "origin": "CRF",
    "implementation_notes": ""
  },
  {
    "domain": "AE",
    "name": "AEOUT",
    "label": "Outcome of Adverse Event",
    "type": "Char",
    "length": "",
    "role": "Record Qualifier",
    "core": "Perm",
    "ordinal": "36",
    "description": "Description of the outcome of an event.",
    "mandatory": false,
    "codelist": {
      "code": "C66768",
      "name": "Version-agnostic anchor resource for codelist C66768",
      "href": "/mdr/root/ct/sdtmct/codelists/C66768"
    },
    "origin": "CRF",
    "implementation_notes": ""
  },
  {
    "domain": "AE",
    "name": "AESCAN",
    "label": "Involves Cancer",
    "type": "Char",
    "length": "",
    "role": "Record Qualifier",
    "core": "Perm",
    "ordinal": "37",
    "description": "Was the serious event associated with the development of cancer? Valid values are \"Y\" and \"N\". This is a legacy seriousness criterion. It is not included in ICH E2A or E2B.",
    "mandatory": false,
    "codelist": {
      "code": "C66742",
      "name": "Version-agnostic anchor resource for codelist C66742",
      "href": "/mdr/root/ct/sdtmct/codelists/C66742"
    },
    "origin": "CRF",
    "implementation_notes": ""
  },
  {
    "domain": "AE",
    "name": "AESCONG",
    "label": "Congenital Anomaly or Birth Defect",
    "type": "Char",
    "length": "",
    "role": "Record Qualifier",
    "core": "Perm",
    "ordinal": "38",
    "description": "Was the serious event associated with congenital anomaly or birth defect? Valid values are \"Y\" and \"N\".",
    "mandatory": false,
    "codelist": {
      "code": "C66742",
      "name": "Version-agnostic anchor resource for codelist C66742",
      "href": "/mdr/root/ct/sdtmct/codelists/C66742"
    },
    "origin": "CRF",
    "implementation_notes": ""
  },
  {
    "domain": "AE",
    "name": "AESDISAB",
    "label": "Persist or Signif Disability/Incapacity",
    "type": "Char",
    "length": "",
    "role": "Record Qualifier",
    "core": "Perm",
    "ordinal": "39",
    "description": "Did the serious event result in persistent or significant disability/incapacity? Valid values are \"Y\" and \"N\".",
    "mandatory": false,
    "codelist": {
      "code": "C66742",
      "name": "Version-agnostic anchor resource for codelist C66742",
      "href": "/mdr/root/ct/sdtmct/codelists/C66742"
    },
    "origin": "CRF",
    "implementation_notes": ""
  },
  {
    "domain": "AE",
    "name": "AESDTH",
    "label": "Results in Death",
    "type": "Char",
    "length": "",
    "role": "Record Qualifier",
    "core": "Perm",
    "ordinal": "40",
    "description": "Did the serious event result in death? Valid values are \"Y\" and \"N\".",
    "mandatory": false,
    "codelist": {
      "code": "C66742",
      "name": "Version-agnostic anchor resource for codelist C66742",
      "href": "/mdr/root/ct/sdtmct/codelists/C66742"
    },
    "origin": "CRF",
    "implementation_notes": ""
  },
  {
    "domain": "AE",
    "name": "AESHOSP",
    "label": "Requires or Prolongs Hospitalization",
    "type": "Char",
    "length": "",
    "role": "Record Qualifier",
    "core": "Perm",
    "ordinal": "41",
    "description": "Did the serious event require or prolong hospitalization? Valid values are \"Y\" and \"N\".",
    "mandatory": false,
    "codelist": {
      "code": "C66742",
      "name": "Version-agnostic anchor resource for codelist C66742",
      "href": "/mdr/root/ct/sdtmct/codelists/C66742"
    },
    "origin": "CRF",
    "implementation_notes": ""
  },
  {
    "domain": "AE",
    "name": "AESLIFE",
    "label": "Is Life Threatening",
    "type": "Char",
    "length": "",
    "role": "Record Qualifier",
    "core": "Perm",
    "ordinal": "42",
    "description": "Was the serious event life-threatening? Valid values are \"Y\" and \"N\".",
    "mandatory": false,
    "codelist": {
      "code": "C66742",
      "name": "Version-agnostic anchor resource for codelist C66742",
      "href": "/mdr/root/ct/sdtmct/codelists/C66742"
    },
    "origin": "CRF",
    "implementation_notes": ""
  },
  {
    "domain": "AE",
    "name": "AESOD",
    "label": "Occurred with Overdose",
    "type": "Char",
    "length": "",
    "role": "Record Qualifier",
    "core": "Perm",
    "ordinal": "43",
    "description": "Did the serious event occur with an overdose? Valid values are \"Y\" and \"N\". This is a legacy seriousness criterion. It is not included in ICH E2A or E2B.",
    "mandatory": false,
    "codelist": {
      "code": "C66742",
      "name": "Version-agnostic anchor resource for codelist C66742",
      "href": "/mdr/root/ct/sdtmct/codelists/C66742"
    },
    "origin": "CRF",
    "implementation_notes": ""
  },
  {
    "domain": "AE",
    "name": "AESMIE",
    "label": "Other Medically Important Serious Event",
    "type": "Char",
    "length": "",
    "role": "Record Qualifier",
    "core": "Perm",
    "ordinal": "44",
    "description": "Do additional categories for seriousness apply? Valid values are \"Y\" and \"N\".",
    "mandatory": false,
    "codelist": {
      "code": "C66742",
      "name": "Version-agnostic anchor resource for codelist C66742",
      "href": "/mdr/root/ct/sdtmct/codelists/C66742"
    },
    "origin": "CRF",
    "implementation_notes": ""
  },
  {
    "domain": "AE",
    "name": "AESINTV",
    "label": "Needs Intervention to Prevent Impairment",
    "type": "Char",
    "length": "",
    "role": "Record Qualifier",
    "core": "Perm",
    "ordinal": "45",
    "description": "Records whether medical or surgical intervention was necessary to preclude permanent impairment of a body function, or to prevent permanent damage to a body structure, with either situation suspected to be due to the use of a medical product. This variable is used in conjunction with the other \"seriousness\" variables (e.g., fatal, life-threatening). It is part of the US federal government definition of a serious adverse event; see 21 CFR Part 803.3(w)(3).",
    "mandatory": false,
    "codelist": {
      "code": "C66742",
      "name": "Version-agnostic anchor resource for codelist C66742",
      "href": "/mdr/root/ct/sdtmct/codelists/C66742"
    },
    "origin": "CRF",
    "implementation_notes": ""
  },
  {
    "domain": "AE",
    "name": "AEUNANT",
    "label": "Unanticipated Adverse Device Effect",
    "type": "Char",
    "length": "",
    "role": "Record Qualifier",
    "core": "Perm",
    "ordinal": "46",
    "description": "Any serious adverse effect on health or safety or any life-threatening problem or death caused by or associated with a device, if that effect, problem, or death was not previously identified in nature, severity, or degree of incidence in the investigational plan or application (including a supplementary plan or application), \\n or \\n any other unanticipated serious problem associated with a device that relates to the rights, safety, or welfare of subjects. (21 CFR Part 812.3(s)). \\n This variable applies only to serious AEs and should hold collected data; if the value is derived, it should be held in ADaM.",
    "mandatory": false,
    "codelist": {
      "code": "C66742",
      "name": "Version-agnostic anchor resource for codelist C66742",
      "href": "/mdr/root/ct/sdtmct/codelists/C66742"
    },
    "origin": "CRF",
    "implementation_notes": ""
  },
  {
    "domain": "AE",
    "name": "AERLPRT",
    "label": "Rel of AE to Non-Dev-Rel Study Activity",
    "type": "Char",
    "length": "",
    "role": "Record Qualifier",
    "core": "Perm",
    "ordinal": "47",
    "description": "The investigator's opinion as to the causality of the event as related to other protocol-required activities, actions, or assessments (e.g., medication changes, tests/assessments, other procedures). The relationship is to a protocol-specified, non-device-related activity where the device is identified in the data (i.e., has an SPDEVID). The device may be ancillary or under study. \\n Terminology: \\n * In the EU, follow the European Commission Guidelines on Medical Devices, Clinical Investigations: SAE Reporting (MEDDEV 2.7/3) (e.g., Not Related, Unlikely, Possible, Probable, Causal Relationship), with device-specific definitions. \\n * No required Controlled Terminology in US.",
    "mandatory": false,
    "codelist": null,
    "origin": "CRF",
    "implementation_notes": ""
  },
  {
    "domain": "AE",
    "name": "AERLPRC",
    "label": "Rel of AE to Device-Related Procedure",
    "type": "Char",
    "length": "",
    "role": "Record Qualifier",
    "core": "Perm",
    "ordinal": "48",
    "description": "The investigator's opinion as to the likelihood that the device-related study procedure (e.g., implant/insertion, revision/adjustment, explant/removal) caused the AE. The relationship is to a device-related procedure where the device is identified in the data (i.e., has an SPDEVID). The device may be ancillary or under study. \\n Terminology: \\n * In the EU, follow the European Commission Guidelines on Medical Devices, Clinical Investigations: SAE Reporting (MEDDEV 2.7/3) (e.g., Not Related, Unlikely, Possible, Probable, Causal Relationship), with device-specific definitions. \\n * No required Controlled Terminology in US.",
    "mandatory": false,
    "codelist": null,
    "origin": "CRF",
    "implementation_notes": ""
  },
  {
    "domain": "AE",
    "name": "AECONTRT",
    "label": "Concomitant or Additional Trtmnt Given",
    "type": "Char",
    "length": "",
    "role": "Record Qualifier",
    "core": "Perm",
    "ordinal": "49",
    "description": "Was another treatment given because of the occurrence of the event? Valid values are \"Y\" and \"N\".",
    "mandatory": false,
    "codelist": {
      "code": "C66742",
      "name": "Version-agnostic anchor resource for codelist C66742",
      "href": "/mdr/root/ct/sdtmct/codelists/C66742"
    },
    "origin": "CRF",
    "implementation_notes": ""
  },
  {
    "domain": "AE",
    "name": "AETOXGR",
    "label": "Standard Toxicity Grade",
    "type": "Char",
    "length": "",
    "role": "Record Qualifier",
    "core": "Perm",
    "ordinal": "50",
    "description": "Toxicity grade according to a standard toxicity scale (e.g., Common Terminology Criteria for Adverse Events, CTCAE). Sponsors should specify the name of the scale and version used in the metadata (see assumption 7d). If value is from a numeric scale, represent only the number (e.g., \"2\", not \"Grade 2\").",
    "mandatory": false,
    "codelist": null,
    "origin": "CRF",
    "implementation_notes": ""
  },
  {
    "domain": "AE",
    "name": "TAETORD",
    "label": "Planned Order of Element within Arm",
    "type": "Num",
    "length": "",
    "role": "Timing",
    "core": "Perm",
    "ordinal": "51",
    "description": "Number that gives the planned order of the element within the arm.",
    "mandatory": false,
    "codelist": null,
    "origin": "CRF",
    "implementation_notes": ""
  },
  {
    "domain": "AE",
    "name": "EPOCH",
    "label": "Epoch",
    "type": "Char",
    "length": "",
    "role": "Timing",
    "core": "Perm",
    "ordinal": "52",
    "description": "Epoch associated with the start date/time of the adverse event. Examples: \"SCREENING\", \"TREATMENT\", \"FOLLOW-UP\".",
    "mandatory": false,
    "codelist": {
      "code": "C99079",
      "name": "Version-agnostic anchor resource for codelist C99079",
      "href": "/mdr/root/ct/sdtmct/codelists/C99079"
    },
    "origin": "CRF",
    "implementation_notes": ""
  },
  {
    "domain": "AE",
    "name": "AESTDTC",
    "label": "Start Date/Time of Adverse Event",
    "type": "Char",
    "length": "",
    "role": "Timing",
    "core": "Exp",
    "ordinal": "53",
    "description": "Start date/time of the adverse event represented in ISO 8601 character format.",
    "mandatory": false,
    "codelist": null,
    "origin": "CRF",
    "implementation_notes": ""
  },
  {
    "domain": "AE",
    "name": "AEENDTC",
    "label": "End Date/Time of Adverse Event",
    "type": "Char",
    "length": "",
    "role": "Timing",
    "core": "Exp",
    "ordinal": "54",
    "description": "End date/time of the adverse event represented in ISO 8601 character format.",
    "mandatory": false,
    "codelist": null,
    "origin": "CRF",
    "implementation_notes": ""
  },
  {
    "domain": "AE",
    "name": "AESTDY",
    "label": "Study Day of Start of Adverse Event",
    "type": "Num",
    "length": "",
    "role": "Timing",
    "core": "Perm",
    "ordinal": "55",
    "description": "Study day of start of adverse event relative to the sponsor-defined RFSTDTC.",
    "mandatory": false,
    "codelist": null,
    "origin": "CRF",
    "implementation_notes": ""
  },
  {
    "domain": "AE",
    "name": "AEENDY",
    "label": "Study Day of End of Adverse Event",
    "type": "Num",
    "length": "",
    "role": "Timing",
    "core": "Perm",
    "ordinal": "56",
    "description": "Study day of end of event relative to the sponsor-defined RFSTDTC.",
    "mandatory": false,
    "codelist": null,
    "origin": "CRF",
    "implementation_notes": ""
  },
  {
    "domain": "AE",
    "name": "AEDUR",
    "label": "Duration of Adverse Event",
    "type": "Char",
    "length": "",
    "role": "Timing",
    "core": "Perm",
    "ordinal": "57",
    "description": "Collected duration and unit of an adverse event. Used only if collected on the CRF and not derived from start and end date/times. Example: \"P1DT2H\" (for 1 day, 2 hours).",
    "mandatory": false,
    "codelist": null,
    "origin": "CRF",
    "implementation_notes": ""
  },
  {
    "domain": "AE",
    "name": "AEENRF",
    "label": "End Relative to Reference Period",
    "type": "Char",
    "length": "",
    "role": "Timing",
    "core": "Perm",
    "ordinal": "58",
    "description": "Describes the end of the event relative to the sponsor-defined reference period. The sponsor-defined reference period is a continuous period of time defined by a discrete starting point (RFSTDTC) and a discrete ending point (RFENDTC) of the trial. \\n Not all values of the codelist are allowable for this variable. See Section 4.4.7, Use of Relative Timing Variables.",
    "mandatory": false,
    "codelist": {
      "code": "C66728",
      "name": "Version-agnostic anchor resource for codelist C66728",
      "href": "/mdr/root/ct/sdtmct/codelists/C66728"
    },
    "origin": "CRF",
    "implementation_notes": ""
  },
  {
    "domain": "AE",
    "name": "AEENRTPT",
    "label": "End Relative to Reference Time Point",
    "type": "Char",
    "length": "",
    "role": "Timing",
    "core": "Perm",
    "ordinal": "59",
    "description": "Identifies the end of the event as being before or after the reference time point defined by variable AEENTPT. \\n Not all values of the codelist are allowable for this variable. See Section 4.4.7, Use of Relative Timing Variables.",
    "mandatory": false,
    "codelist": {
      "code": "C66728",
      "name": "Version-agnostic anchor resource for codelist C66728",
      "href": "/mdr/root/ct/sdtmct/codelists/C66728"
    },
    "origin": "CRF",
    "implementation_notes": ""
  },
  {
    "domain": "AE",
    "name": "AEENTPT",
    "label": "End Reference Time Point",
    "type": "Char",
    "length": "",
    "role": "Timing",
    "core": "Perm",
    "ordinal": "60",
    "description": "Description of date/time in ISO 8601 character format of the reference point referred to by AEENRTPT. Examples: \"2003-12-25\", \"VISIT 2\".",
    "mandatory": false,
    "codelist": null,
    "origin": "CRF",
    "implementation_notes": ""
  },
  {
    "domain": "AG",
    "name": "STUDYID",
    "label": "Study Identifier",
    "type": "Char",
    "length": "",
    "role": "Identifier",
    "core": "Req",
    "ordinal": "1",
    "description": "Unique identifier for a study.",
    "mandatory": false,
    "codelist": null,
    "origin": "CRF",
    "implementation_notes": ""
  },
  {
    "domain": "AG",
    "name": "DOMAIN",
    "label": "Domain Abbreviation",
    "type": "Char",
    "length": "",
    "role": "Identifier",
    "core": "Req",
    "ordinal": "2",
    "description": "Two-character abbreviation for the domain.",
    "mandatory": false,
    "codelist": null,
    "origin": "CRF",
    "implementation_notes": ""
  },
  {
    "domain": "AG",
    "name": "USUBJID",
    "label": "Unique Subject Identifier",
    "type": "Char",
    "length": "",
    "role": "Identifier",
    "core": "Req",
    "ordinal": "3",
    "description": "Identifier used to uniquely identify a subject across all studies for all applications or submissions involving the product.",
    "mandatory": false,
    "codelist": null,
    "origin": "CRF",
    "implementation_notes": ""
  },
  {
    "domain": "AG",
    "name": "AGSEQ",
    "label": "Sequence Number",
    "type": "Num",
    "length": "",
    "role": "Identifier",
    "core": "Req",
    "ordinal": "4",
    "description": "Sequence number given to ensure uniqueness of subject records within a domain. May be any valid number.",
    "mandatory": false,
    "codelist": null,
    "origin": "CRF",
    "implementation_notes": ""
  },
  {
    "domain": "AG",
    "name": "AGGRPID",
    "label": "Group ID",
    "type": "Char",
    "length": "",
    "role": "Identifier",
    "core": "Perm",
    "ordinal": "5",
    "description": "Used to tie together a block of related records in a single domain for a subject.",
    "mandatory": false,
    "codelist": null,
    "origin": "CRF",
    "implementation_notes": ""
  },
  {
    "domain": "AG",
    "name": "AGSPID",
    "label": "Sponsor-Defined Identifier",
    "type": "Char",
    "length": "",
    "role": "Identifier",
    "core": "Perm",
    "ordinal": "6",
    "description": "Sponsor-defined reference number. May be preprinted on the CRF as an explicit line identifier or defined in the sponsor's operational database. Example: Line number from the procedure or test page.",
    "mandatory": false,
    "codelist": null,
    "origin": "CRF",
    "implementation_notes": ""
  },
  {
    "domain": "AG",
    "name": "AGLNKID",
    "label": "Link ID",
    "type": "Char",
    "length": "",
    "role": "Identifier",
    "core": "Perm",
    "ordinal": "7",
    "description": "Identifier used to link related records across domains.This may be a one-to-one or a one-to-many relationship.",
    "mandatory": false,
    "codelist": null,
    "origin": "CRF",
    "implementation_notes": ""
  },
  {
    "domain": "AG",
    "name": "AGLNKGRP",
    "label": "Link Group ID",
    "type": "Char",
    "length": "",
    "role": "Identifier",
    "core": "Perm",
    "ordinal": "8",
    "description": "Identifier used to link related records across domains.This will usually be a many-to-one relationship.",
    "mandatory": false,
    "codelist": null,
    "origin": "CRF",
    "implementation_notes": ""
  },
  {
    "domain": "AG",
    "name": "AGTRT",
    "label": "Reported Agent Name",
    "type": "Char",
    "length": "",
    "role": "Topic",
    "core": "Req",
    "ordinal": "9",
    "description": "Verbatim medication name that is either preprinted or collected on a CRF.",
    "mandatory": false,
    "codelist": null,
    "origin": "CRF",
    "implementation_notes": ""
  },
  {
    "domain": "AG",
    "name": "AGMODIFY",
    "label": "Modified Reported Name",
    "type": "Char",
    "length": "",
    "role": "Synonym Qualifier",
    "core": "Perm",
    "ordinal": "10",
    "description": "If AGTRT is modified to facilitate coding, then AGMODIFY will contain the modified text.",
    "mandatory": false,
    "codelist": null,
    "origin": "CRF",
    "implementation_notes": ""
  },
  {
    "domain": "AG",
    "name": "AGDECOD",
    "label": "Standardized Agent Name",
    "type": "Char",
    "length": "",
    "role": "Synonym Qualifier",
    "core": "Perm",
    "ordinal": "11",
    "description": "Standardized or dictionary-derived text description of AGTRT or AGMODIFY. Equivalent to the generic medication name in WHO Drug. The sponsor is expected to provide the dictionary name and version used to map the terms utilizing the external codelist element in the Define-XML document. If an intervention term does not have a decode value in the dictionary, then AGDECOD will be left blank.",
    "mandatory": false,
    "codelist": null,
    "origin": "CRF",
    "implementation_notes": ""
  },
  {
    "domain": "AG",
    "name": "AGCAT",
    "label": "Category for Agent",
    "type": "Char",
    "length": "",
    "role": "Grouping Qualifier",
    "core": "Perm",
    "ordinal": "12",
    "description": "Used to define a category of agent. Examples: \"CHALLENGE AGENT\", \"PET TRACER\".",
    "mandatory": false,
    "codelist": null,
    "origin": "CRF",
    "implementation_notes": ""
  },
  {
    "domain": "AG",
    "name": "AGSCAT",
    "label": "Subcategory for Agent",
    "type": "Char",
    "length": "",
    "role": "Grouping Qualifier",
    "core": "Perm",
    "ordinal": "13",
    "description": "Further categorization of agent.",
    "mandatory": false,
    "codelist": null,
    "origin": "CRF",
    "implementation_notes": ""
  },
  {
    "domain": "AG",
    "name": "AGPRESP",
    "label": "AG Pre-Specified",
    "type": "Char",
    "length": "",
    "role": "Variable Qualifier",
    "core": "Perm",
    "ordinal": "14",
    "description": "Used to indicate whether (\"Y\"/null) information about the use of a specific agent was solicited on the CRF.",
    "mandatory": false,
    "codelist": {
      "code": "C66742",
      "name": "Version-agnostic anchor resource for codelist C66742",
      "href": "/mdr/root/ct/sdtmct/codelists/C66742"
    },
    "origin": "CRF",
    "implementation_notes": ""
  },
  {
    "domain": "AG",
    "name": "AGOCCUR",
    "label": "AG Occurrence",
    "type": "Char",
    "length": "",
    "role": "Record Qualifier",
    "core": "Perm",
    "ordinal": "15",
    "description": "When the use of specific agent is solicited, AGOCCUR is used to indicate whether (\"Y\"/\"N\") use of the agent occurred. Values are null for agents not specifically solicited.",
    "mandatory": false,
    "codelist": {
      "code": "C66742",
      "name": "Version-agnostic anchor resource for codelist C66742",
      "href": "/mdr/root/ct/sdtmct/codelists/C66742"
    },
    "origin": "CRF",
    "implementation_notes": ""
  },
  {
    "domain": "AG",
    "name": "AGSTAT",
    "label": "Completion Status",
    "type": "Char",
    "length": "",
    "role": "Record Qualifier",
    "core": "Perm",
    "ordinal": "16",
    "description": "Used to indicate that a question about a prespecified agent was not answered. Should be null or have a value of \"NOT DONE\".",
    "mandatory": false,
    "codelist": {
      "code": "C66789",
      "name": "Version-agnostic anchor resource for codelist C66789",
      "href": "/mdr/root/ct/sdtmct/codelists/C66789"
    },
    "origin": "CRF",
    "implementation_notes": ""
  },
  {
    "domain": "AG",
    "name": "AGREASND",
    "label": "Reason Procedure Agent Not Collected",
    "type": "Char",
    "length": "",
    "role": "Record Qualifier",
    "core": "Perm",
    "ordinal": "17",
    "description": "Describes the reason a response to a question about the occurrence of a procedure agent was not collected. Used in conjunction with AGSTAT when value is \"NOT DONE\".",
    "mandatory": false,
    "codelist": null,
    "origin": "CRF",
    "implementation_notes": ""
  },
  {
    "domain": "AG",
    "name": "AGCLAS",
    "label": "Agent Class",
    "type": "Char",
    "length": "",
    "role": "Variable Qualifier",
    "core": "Perm",
    "ordinal": "18",
    "description": "Drug class. May be obtained from coding. When coding to a single class, populate with class value. If using a dictionary and coding to multiple classes, follow guidance in Section 4.2.8.3, Multiple Values for a Non-result Qualifier Variable, or omit AGCLAS.",
    "mandatory": false,
    "codelist": null,
    "origin": "CRF",
    "implementation_notes": ""
  },
  {
    "domain": "AG",
    "name": "AGCLASCD",
    "label": "Agent Class Code",
    "type": "Char",
    "length": "",
    "role": "Variable Qualifier",
    "core": "Perm",
    "ordinal": "19",
    "description": "Class code corresponding to AGCLAS. Drug class. May be obtained from coding. When coding to a single class, populate with class code. If using a dictionary and coding to multiple classes, follow guidance in Section 4.2.8.3, Multiple Values for a Non-result Qualifier Variable, or omit AGCLASCD.",
    "mandatory": false,
    "codelist": null,
    "origin": "CRF",
    "implementation_notes": ""
  },
  {
    "domain": "AG",
    "name": "AGDOSE",
    "label": "Dose per Administration",
    "type": "Num",
    "length": "",
    "role": "Record Qualifier",
    "core": "Perm",
    "ordinal": "20",
    "description": "Amount of AGTRT taken.",
    "mandatory": false,
    "codelist": null,
    "origin": "CRF",
    "implementation_notes": ""
  },
  {
    "domain": "AG",
    "name": "AGDOSTXT",
    "label": "Dose Description",
    "type": "Char",
    "length": "",
    "role": "Record Qualifier",
    "core": "Perm",
    "ordinal": "21",
    "description": "Dosing amounts or a range of dosing information collected in text form. Units may be stored in AGDOSU. Examples: \"200-400\", \"15-20\".",
    "mandatory": false,
    "codelist": null,
    "origin": "CRF",
    "implementation_notes": ""
  },
  {
    "domain": "AG",
    "name": "AGDOSU",
    "label": "Dose Units",
    "type": "Char",
    "length": "",
    "role": "Variable Qualifier",
    "core": "Perm",
    "ordinal": "22",
    "description": "Units for AGDOSE and AGDOSTXT. Examples: \"ng\", \"mg\", \"mg/kg\".",
    "mandatory": false,
    "codelist": {
      "code": "C71620",
      "name": "Version-agnostic anchor resource for codelist C71620",
      "href": "/mdr/root/ct/sdtmct/codelists/C71620"
    },
    "origin": "CRF",
    "implementation_notes": ""
  },
  {
    "domain": "AG",
    "name": "AGDOSFRM",
    "label": "Dose Form",
    "type": "Char",
    "length": "",
    "role": "Variable Qualifier",
    "core": "Perm",
    "ordinal": "23",
    "description": "Dose form for AGTRT. Examples: \"TABLET\", \"AEROSOL\".",
    "mandatory": false,
    "codelist": {
      "code": "C66726",
      "name": "Version-agnostic anchor resource for codelist C66726",
      "href": "/mdr/root/ct/sdtmct/codelists/C66726"
    },
    "origin": "CRF",
    "implementation_notes": ""
  },
  {
    "domain": "AG",
    "name": "AGDOSFRQ",
    "label": "Dosing Frequency per Interval",
    "type": "Char",
    "length": "",
    "role": "Record Qualifier",
    "core": "Perm",
    "ordinal": "24",
    "description": "Usually expressed as the number of repeated administrations of AGDOSE within a specific time period. Example: \"ONCE\".",
    "mandatory": false,
    "codelist": {
      "code": "C71113",
      "name": "Version-agnostic anchor resource for codelist C71113",
      "href": "/mdr/root/ct/sdtmct/codelists/C71113"
    },
    "origin": "CRF",
    "implementation_notes": ""
  },
  {
    "domain": "AG",
    "name": "AGROUTE",
    "label": "Route of Administration",
    "type": "Char",
    "length": "",
    "role": "Variable Qualifier",
    "core": "Perm",
    "ordinal": "25",
    "description": "Route of administration for AGTRT. Example: \"ORAL\".",
    "mandatory": false,
    "codelist": {
      "code": "C66729",
      "name": "Version-agnostic anchor resource for codelist C66729",
      "href": "/mdr/root/ct/sdtmct/codelists/C66729"
    },
    "origin": "CRF",
    "implementation_notes": ""
  },
  {
    "domain": "AG",
    "name": "VISITNUM",
    "label": "Visit Number",
    "type": "Num",
    "length": "",
    "role": "Timing",
    "core": "Exp",
    "ordinal": "26",
    "description": "1. Clinical encounter number. \\n 2. Numeric version of VISIT, used for sorting.",
    "mandatory": false,
    "codelist": null,
    "origin": "CRF",
    "implementation_notes": ""
  },
  {
    "domain": "AG",
    "name": "VISIT",
    "label": "Visit Name",
    "type": "Char",
    "length": "",
    "role": "Timing",
    "core": "Perm",
    "ordinal": "27",
    "description": "1. Protocol-defined description of clinical encounter. \\n 2. May be used in addition to VISITNUM and/or VISITDY.",
    "mandatory": false,
    "codelist": null,
    "origin": "CRF",
    "implementation_notes": ""
  },
  {
    "domain": "AG",
    "name": "VISITDY",
    "label": "Planned Study Day of Visit",
    "type": "Num",
    "length": "",
    "role": "Timing",
    "core": "Perm",
    "ordinal": "28",
    "description": "Planned study day of the visit based upon RFSTDTC in Demographics.",
    "mandatory": false,
    "codelist": null,
    "origin": "CRF",
    "implementation_notes": ""
  },
  {
    "domain": "AG",
    "name": "TAETORD",
    "label": "Planned Order of Element within Arm",
    "type": "Num",
    "length": "",
    "role": "Timing",
    "core": "Perm",
    "ordinal": "29",
    "description": "Number that gives the planned order of the element within the arm for the element in which the agent administration started.",
    "mandatory": false,
    "codelist": null,
    "origin": "CRF",
    "implementation_notes": ""
  },
  {
    "domain": "AG",
    "name": "EPOCH",
    "label": "Epoch",
    "type": "Char",
    "length": "",
    "role": "Timing",
    "core": "Perm",
    "ordinal": "30",
    "description": "Epoch associated with the start date/time of the agent administration started.",
    "mandatory": false,
    "codelist": {
      "code": "C99079",
      "name": "Version-agnostic anchor resource for codelist C99079",
      "href": "/mdr/root/ct/sdtmct/codelists/C99079"
    },
    "origin": "CRF",
    "implementation_notes": ""
  },
  {
    "domain": "AG",
    "name": "AGSTDTC",
    "label": "Start Date/Time of Agent",
    "type": "Char",
    "length": "",
    "role": "Timing",
    "core": "Perm",
    "ordinal": "31",
    "description": "The date/time when administration of the treatment indicated by AGTRT and the dosing variables began.",
    "mandatory": false,
    "codelist": null,
    "origin": "CRF",
    "implementation_notes": ""
  },
  {
    "domain": "AG",
    "name": "AGENDTC",
    "label": "End Date/Time of Agent",
    "type": "Char",
    "length": "",
    "role": "Timing",
    "core": "Perm",
    "ordinal": "32",
    "description": "The date/time when administration of the treatment indicated by AGTRT and the dosing variables ended.",
    "mandatory": false,
    "codelist": null,
    "origin": "CRF",
    "implementation_notes": ""
  },
  {
    "domain": "AG",
    "name": "AGSTDY",
    "label": "Study Day of Start of Agent",
    "type": "Num",
    "length": "",
    "role": "Timing",
    "core": "Perm",
    "ordinal": "33",
    "description": "Study day of start of agent relative to the sponsor-defined RFSTDTC.",
    "mandatory": false,
    "codelist": null,
    "origin": "CRF",
    "implementation_notes": ""
  },
  {
    "domain": "AG",
    "name": "AGENDY",
    "label": "Study Day of End of Agent",
    "type": "Num",
    "length": "",
    "role": "Timing",
    "core": "Perm",
    "ordinal": "34",
    "description": "Study day of end of agent relative to the sponsor-defined RFSTDTC.",
    "mandatory": false,
    "codelist": null,
    "origin": "CRF",
    "implementation_notes": ""
  },
  {
    "domain": "AG",
    "name": "AGDUR",
    "label": "Duration of Agent",
    "type": "Char",
    "length": "",
    "role": "Timing",
    "core": "Perm",
    "ordinal": "35",
    "description": "Collected duration for an agent episode. Used only if collected on the CRF and not derived from start and end date/times.",
    "mandatory": false,
    "codelist": null,
    "origin": "CRF",
    "implementation_notes": ""
  },
  {
    "domain": "AG",
    "name": "AGSTRF",
    "label": "Start Relative to Reference Period",
    "type": "Char",
    "length": "",
    "role": "Timing",
    "core": "Perm",
    "ordinal": "36",
    "description": "Describes the start of the agent relative to sponsor-defined reference period. The sponsor-defined reference period is a continuous period of time defined by a discrete starting point and a discrete ending point (represented by RFSTDTC and RFENDTC in Demographics). If information such as \"PRIOR\", \"ONGOING\", or \"CONTINUING\" was collected, this information may be translated into AGSTRF. \\n Not all values of the codelist are allowable for this variable. See Section 4.4.7, Use of Relative Timing Variables.",
    "mandatory": false,
    "codelist": {
      "code": "C66728",
      "name": "Version-agnostic anchor resource for codelist C66728",
      "href": "/mdr/root/ct/sdtmct/codelists/C66728"
    },
    "origin": "CRF",
    "implementation_notes": ""
  },
  {
    "domain": "AG",
    "name": "AGENRF",
    "label": "End Relative to Reference Period",
    "type": "Char",
    "length": "",
    "role": "Timing",
    "core": "Perm",
    "ordinal": "37",
    "description": "Describes the end of the agent relative to the sponsor-defined reference period. The sponsor-defined reference period is a continuous period of time defined by a discrete starting point and a discrete ending point (represented by RFSTDTC and RFENDTC in Demographics). If information such as \"PRIOR\", \"ONGOING\", or \"CONTINUING\" was collected, this information may be translated into AGENRF. \\n Not all values of the codelist are allowable for this variable. See Section 4.4.7, Use of Relative Timing Variables.",
    "mandatory": false,
    "codelist": {
      "code": "C66728",
      "name": "Version-agnostic anchor resource for codelist C66728",
      "href": "/mdr/root/ct/sdtmct/codelists/C66728"
    },
    "origin": "CRF",
    "implementation_notes": ""
  },
  {
    "domain": "AG",
    "name": "AGSTRTPT",
    "label": "Start Relative to Reference Time Point",
    "type": "Char",
    "length": "",
    "role": "Timing",
    "core": "Perm",
    "ordinal": "38",
    "description": "Identifies the start of the agent as being before or after the sponsor-defined reference time point defined by variable AGSTTPT. \\n Not all values of the codelist are allowable for this variable. See Section 4.4.7, Use of Relative Timing Variables.",
    "mandatory": false,
    "codelist": {
      "code": "C66728",
      "name": "Version-agnostic anchor resource for codelist C66728",
      "href": "/mdr/root/ct/sdtmct/codelists/C66728"
    },
    "origin": "CRF",
    "implementation_notes": ""
  },
  {
    "domain": "AG",
    "name": "AGSTTPT",
    "label": "Start Reference Time Point",
    "type": "Char",
    "length": "",
    "role": "Timing",
    "core": "Perm",
    "ordinal": "39",
    "description": "Description or date/time in ISO 8601 character format of the reference point referred to by AGSTRTPT. Examples: \"2003-12-15\", \"VISIT 1\".",
    "mandatory": false,
    "codelist": null,
    "origin": "CRF",
    "implementation_notes": ""
  },
  {
    "domain": "AG",
    "name": "AGENRTPT",
    "label": "End Relative to Reference Time Point",
    "type": "Char",
    "length": "",
    "role": "Timing",
    "core": "Perm",
    "ordinal": "40",
    "description": "Identifies the end of the agent as being before or after the reference time point defined by variable AGENTPT. Identifies the end of the agent as being before or after the sponsor-defined reference time point defined by variable AGENTPT. \\n Not all values of the codelist are allowable for this variable. See Section 4.4.7, Use of Relative Timing Variables.",
    "mandatory": false,
    "codelist": {
      "code": "C66728",
      "name": "Version-agnostic anchor resource for codelist C66728",
      "href": "/mdr/root/ct/sdtmct/codelists/C66728"
    },
    "origin": "CRF",
    "implementation_notes": ""
  },
  {
    "domain": "AG",
    "name": "AGENTPT",
    "label": "End Reference Time Point",
    "type": "Char",
    "length": "",
    "role": "Timing",
    "core": "Perm",
    "ordinal": "41",
    "description": "Description or date/time in ISO 8601 character format of the reference point referred to by AGENRTPT. Examples: \"2003-12-25\", \"VISIT 2\".",
    "mandatory": false,
    "codelist": null,
    "origin": "CRF",
    "implementation_notes": ""
  },
  {
    "domain": "BE",
    "name": "STUDYID",
    "label": "Study Identifier",
    "type": "Char",
    "length": "",
    "role": "Identifier",
    "core": "Req",
    "ordinal": "1",
    "description": "Unique identifier for a study.",
    "mandatory": false,
    "codelist": null,
    "origin": "CRF",
    "implementation_notes": ""
  },
  {
    "domain": "BE",
    "name": "DOMAIN",
    "label": "Domain Abbreviation",
    "type": "Char",
    "length": "",
    "role": "Identifier",
    "core": "Req",
    "ordinal": "2",
    "description": "Two-character abbreviation for the domain.",
    "mandatory": false,
    "codelist": null,
    "origin": "CRF",
    "implementation_notes": ""
  },
  {
    "domain": "BE",
    "name": "USUBJID",
    "label": "Unique Subject Identifier",
    "type": "Char",
    "length": "",
    "role": "Identifier",
    "core": "Req",
    "ordinal": "3",
    "description": "Identifier used to uniquely identify a subject across all studies for all applications or submissions involving the product.",
    "mandatory": false,
    "codelist": null,
    "origin": "CRF",
    "implementation_notes": ""
  },
  {
    "domain": "BE",
    "name": "SPDEVID",
    "label": "Sponsor Device Identifier",
    "type": "Char",
    "length": "",
    "role": "Identifier",
    "core": "Perm",
    "ordinal": "4",
    "description": "Sponsor-defined identifier for a device.",
    "mandatory": false,
    "codelist": null,
    "origin": "CRF",
    "implementation_notes": ""
  },
  {
    "domain": "BE",
    "name": "BESEQ",
    "label": "Sequence Number",
    "type": "Num",
    "length": "",
    "role": "Identifier",
    "core": "Req",
    "ordinal": "5",
    "description": "Sequence number to ensure uniqueness of records within a dataset for a subject. May be any valid number (including decimals) and does not have to start at 1.",
    "mandatory": false,
    "codelist": null,
    "origin": "CRF",
    "implementation_notes": ""
  },
  {
    "domain": "BE",
    "name": "BEGRPID",
    "label": "Group ID",
    "type": "Char",
    "length": "",
    "role": "Identifier",
    "core": "Perm",
    "ordinal": "6",
    "description": "Optional group identifier, used to link together a block of related records within a subject in a domain.",
    "mandatory": false,
    "codelist": null,
    "origin": "CRF",
    "implementation_notes": ""
  },
  {
    "domain": "BE",
    "name": "BEREFID",
    "label": "Reference ID",
    "type": "Char",
    "length": "",
    "role": "Identifier",
    "core": "Exp",
    "ordinal": "7",
    "description": "Internal or external identifier for the specimen affected or created by the event.",
    "mandatory": false,
    "codelist": null,
    "origin": "CRF",
    "implementation_notes": ""
  },
  {
    "domain": "BE",
    "name": "BESPID",
    "label": "Sponsor-Defined Identifier",
    "type": "Char",
    "length": "",
    "role": "Identifier",
    "core": "Perm",
    "ordinal": "8",
    "description": "Optional sponsor-defined reference number. Example: Line number on a CRF page.",
    "mandatory": false,
    "codelist": null,
    "origin": "CRF",
    "implementation_notes": ""
  },
  {
    "domain": "BE",
    "name": "BETERM",
    "label": "Reported Term for the Biospecimen Event",
    "type": "Char",
    "length": "",
    "role": "Topic",
    "core": "Req",
    "ordinal": "9",
    "description": "Topic variable for an event observation, which is the verbatim or pre-specified name of the event.",
    "mandatory": false,
    "codelist": null,
    "origin": "CRF",
    "implementation_notes": ""
  },
  {
    "domain": "BE",
    "name": "BEMODIFY",
    "label": "Modified Reported Term",
    "type": "Char",
    "length": "",
    "role": "Synonym Qualifier",
    "core": "Perm",
    "ordinal": "10",
    "description": "If the value for BETERM is modified for coding purposes, then the modified text is placed here.",
    "mandatory": false,
    "codelist": null,
    "origin": "CRF",
    "implementation_notes": ""
  },
  {
    "domain": "BE",
    "name": "BEDECOD",
    "label": "Dictionary-Derived Term",
    "type": "Char",
    "length": "",
    "role": "Synonym Qualifier",
    "core": "Perm",
    "ordinal": "11",
    "description": "Dictionary-derived text description of BETERM or BEMODIFY, if applicable.",
    "mandatory": false,
    "codelist": {
      "code": "C124297",
      "name": "Version-agnostic anchor resource for codelist C124297",
      "href": "/mdr/root/ct/sdtmct/codelists/C124297"
    },
    "origin": "CRF",
    "implementation_notes": ""
  },
  {
    "domain": "BE",
    "name": "BECAT",
    "label": "Category for Biospecimen Event",
    "type": "Char",
    "length": "",
    "role": "Grouping Qualifier",
    "core": "Perm",
    "ordinal": "12",
    "description": "Used to define a category of topic-variable values. Example: COLLECTION, PREPARATION, TRANSPORT.",
    "mandatory": false,
    "codelist": null,
    "origin": "CRF",
    "implementation_notes": ""
  },
  {
    "domain": "BE",
    "name": "BESCAT",
    "label": "Subcategory for Biospecimen Event",
    "type": "Char",
    "length": "",
    "role": "Grouping Qualifier",
    "core": "Perm",
    "ordinal": "13",
    "description": "A further categorization of BECAT values.",
    "mandatory": false,
    "codelist": null,
    "origin": "CRF",
    "implementation_notes": ""
  },
  {
    "domain": "BE",
    "name": "BELOC",
    "label": "Anatomical Location of Event",
    "type": "Char",
    "length": "",
    "role": "Record Qualifier",
    "core": "Perm",
    "ordinal": "14",
    "description": "Describes the anatomical location relevant for the event (e.g. BRAIN, LUNG).",
    "mandatory": false,
    "codelist": {
      "code": "C74456",
      "name": "Version-agnostic anchor resource for codelist C74456",
      "href": "/mdr/root/ct/sdtmct/codelists/C74456"
    },
    "origin": "CRF",
    "implementation_notes": ""
  },
  {
    "domain": "BE",
    "name": "BEPARTY",
    "label": "Accountable Party",
    "type": "Char",
    "length": "",
    "role": "Record Qualifier",
    "core": "Perm",
    "ordinal": "15",
    "description": "Party accountable for the transferable object (e.g. specimen) as a result of the activity performed in the associated BETERM variable. The party could be an individual (e.g., subject), an organization (e.g., sponsor), or a location that is a proxy for an individual or organization (e.g., site). It is usually a somewhat general term that is further identified in the BEPRTYID variable.",
    "mandatory": false,
    "codelist": null,
    "origin": "CRF",
    "implementation_notes": ""
  },
  {
    "domain": "BE",
    "name": "BEPRTYID",
    "label": "Identification of Accountable Party",
    "type": "Char",
    "length": "",
    "role": "Record Qualifier",
    "core": "Perm",
    "ordinal": "16",
    "description": "Identification of the specific party accountable for the transferable object (e.g. Specimen) after the action in BETERM is taken. Used in conjunction with BEPARTY.",
    "mandatory": false,
    "codelist": null,
    "origin": "CRF",
    "implementation_notes": ""
  },
  {
    "domain": "BE",
    "name": "VISITNUM",
    "label": "Visit Number",
    "type": "Num",
    "length": "",
    "role": "Timing",
    "core": "Exp",
    "ordinal": "17",
    "description": "Clinical encounter number. Numeric version of VISIT, used for sorting.",
    "mandatory": false,
    "codelist": null,
    "origin": "CRF",
    "implementation_notes": ""
  },
  {
    "domain": "BE",
    "name": "VISIT",
    "label": "Visit Name",
    "type": "Char",
    "length": "",
    "role": "Timing",
    "core": "Perm",
    "ordinal": "18",
    "description": "Protocol-defined description of clinical encounter.",
    "mandatory": false,
    "codelist": null,
    "origin": "CRF",
    "implementation_notes": ""
  },
  {
    "domain": "BE",
    "name": "VISITDY",
    "label": "Planned Study Day of Visit",
    "type": "Num",
    "length": "",
    "role": "Timing",
    "core": "Perm",
    "ordinal": "19",
    "description": "Planned study day of VISIT. Should be an integer.",
    "mandatory": false,
    "codelist": null,
    "origin": "CRF",
    "implementation_notes": ""
  },
  {
    "domain": "BE",
    "name": "BEDTC",
    "label": "Date/Time of Specimen Collection",
    "type": "Char",
    "length": "",
    "role": "Timing",
    "core": "Exp",
    "ordinal": "20",
    "description": "Date and time of specimen collection.",
    "mandatory": false,
    "codelist": null,
    "origin": "CRF",
    "implementation_notes": ""
  },
  {
    "domain": "BE",
    "name": "BESTDTC",
    "label": "Start Date/Time of Biospecimen Event",
    "type": "Char",
    "length": "",
    "role": "Timing",
    "core": "Exp",
    "ordinal": "21",
    "description": "Start date/time of the event.",
    "mandatory": false,
    "codelist": null,
    "origin": "CRF",
    "implementation_notes": ""
  },
  {
    "domain": "BE",
    "name": "BEENDTC",
    "label": "End Date/Time of Biospecimen Event",
    "type": "Char",
    "length": "",
    "role": "Timing",
    "core": "Exp",
    "ordinal": "22",
    "description": "End date/time of the event.",
    "mandatory": false,
    "codelist": null,
    "origin": "CRF",
    "implementation_notes": ""
  },
  {
    "domain": "BE",
    "name": "BESTDY",
    "label": "Study Day of Start of Biospecimen Event",
    "type": "Num",
    "length": "",
    "role": "Timing",
    "core": "Perm",
    "ordinal": "23",
    "description": "Actual study day of start of observation expressed in integer days relative to the sponsor-defined RFSTDTC in Demographics.",
    "mandatory": false,
    "codelist": null,
    "origin": "CRF",
    "implementation_notes": ""
  },
  {
    "domain": "BE",
    "name": "BEENDY",
    "label": "Study Day of End of Biospecimen Event",
    "type": "Num",
    "length": "",
    "role": "Timing",
    "core": "Perm",
    "ordinal": "24",
    "description": "Actual study day of end of observation expressed in integer days relative to the sponsor-defined RFSTDTC in Demographics.",
    "mandatory": false,
    "codelist": null,
    "origin": "CRF",
    "implementation_notes": ""
  },
  {
    "domain": "BE",
    "name": "BEDUR",
    "label": "Duration of Biospecimen Event",
    "type": "Char",
    "length": "",
    "role": "Timing",
    "core": "Perm",
    "ordinal": "25",
    "description": "Collected duration and unit of a biospecimen event. Used only if collected on the CRF and not derived from start and end date/times. Example: P1DT2H (for 1 day, 2 hours).",
    "mandatory": false,
    "codelist": null,
    "origin": "CRF",
    "implementation_notes": ""
  },
  {
    "domain": "BS",
    "name": "STUDYID",
    "label": "Study Identifier",
    "type": "Char",
    "length": "",
    "role": "Identifier",
    "core": "Req",
    "ordinal": "1",
    "description": "Unique identifier for a study.",
    "mandatory": false,
    "codelist": null,
    "origin": "CRF",
    "implementation_notes": ""
  },
  {
    "domain": "BS",
    "name": "DOMAIN",
    "label": "Domain Abbreviation",
    "type": "Char",
    "length": "",
    "role": "Identifier",
    "core": "Req",
    "ordinal": "2",
    "description": "Two-character abbreviation for the domain.",
    "mandatory": false,
    "codelist": null,
    "origin": "CRF",
    "implementation_notes": ""
  },
  {
    "domain": "BS",
    "name": "USUBJID",
    "label": "Unique Subject Identifier",
    "type": "Char",
    "length": "",
    "role": "Identifier",
    "core": "Req",
    "ordinal": "3",
    "description": "Identifier used to uniquely identify a subject across all studies for all applications or submissions involving the product.",
    "mandatory": false,
    "codelist": null,
    "origin": "CRF",
    "implementation_notes": ""
  },
  {
    "domain": "BS",
    "name": "SPDEVID",
    "label": "Sponsor Device Identifier",
    "type": "Char",
    "length": "",
    "role": "Identifier",
    "core": "Perm",
    "ordinal": "4",
    "description": "Sponsor-defined identifier for a device.",
    "mandatory": false,
    "codelist": null,
    "origin": "CRF",
    "implementation_notes": ""
  },
  {
    "domain": "BS",
    "name": "BSSEQ",
    "label": "Sequence Number",
    "type": "Num",
    "length": "",
    "role": "Identifier",
    "core": "Req",
    "ordinal": "5",
    "description": "Sequence number given to ensure uniqueness within a dataset for a subject. May be any valid number (including decimals) and does not have to start at 1.",
    "mandatory": false,
    "codelist": null,
    "origin": "CRF",
    "implementation_notes": ""
  },
  {
    "domain": "BS",
    "name": "BSGRPID",
    "label": "Group ID",
    "type": "Char",
    "length": "",
    "role": "Identifier",
    "core": "Perm",
    "ordinal": "6",
    "description": "Optional group identifier, used to link together a block of related records within a subject in a domain.",
    "mandatory": false,
    "codelist": null,
    "origin": "CRF",
    "implementation_notes": ""
  },
  {
    "domain": "BS",
    "name": "BSREFID",
    "label": "Reference ID",
    "type": "Char",
    "length": "",
    "role": "Identifier",
    "core": "Exp",
    "ordinal": "7",
    "description": "Internal or external identifier such as lab specimen ID.",
    "mandatory": false,
    "codelist": null,
    "origin": "CRF",
    "implementation_notes": ""
  },
  {
    "domain": "BS",
    "name": "BSSPID",
    "label": "Sponsor-Defined Identifier",
    "type": "Char",
    "length": "",
    "role": "Identifier",
    "core": "Perm",
    "ordinal": "8",
    "description": "Sponsor-defined identifier.",
    "mandatory": false,
    "codelist": null,
    "origin": "CRF",
    "implementation_notes": ""
  },
  {
    "domain": "BS",
    "name": "BSTESTCD",
    "label": "Biospecimen Test Short Name",
    "type": "Char",
    "length": "",
    "role": "Topic",
    "core": "Req",
    "ordinal": "9",
    "description": "Short character value for BSTEST used as a column name when converting a dataset from a vertical format to a horizontal format. The short value can be up to 8 characters. Examples: VOLUME, RIN.",
    "mandatory": false,
    "codelist": {
      "code": "C124300",
      "name": "Version-agnostic anchor resource for codelist C124300",
      "href": "/mdr/root/ct/sdtmct/codelists/C124300"
    },
    "origin": "CRF",
    "implementation_notes": ""
  },
  {
    "domain": "BS",
    "name": "BSTEST",
    "label": "Biospecimen Test Name",
    "type": "Char",
    "length": "",
    "role": "Synonym Qualifier",
    "core": "Req",
    "ordinal": "10",
    "description": "Long name for BSTESTCD. Examples: Volume, RNA Integrity Number.",
    "mandatory": false,
    "codelist": {
      "code": "C124299",
      "name": "Version-agnostic anchor resource for codelist C124299",
      "href": "/mdr/root/ct/sdtmct/codelists/C124299"
    },
    "origin": "CRF",
    "implementation_notes": ""
  },
  {
    "domain": "BS",
    "name": "BSCAT",
    "label": "Category for Biospecimen Test",
    "type": "Char",
    "length": "",
    "role": "Grouping Qualifier",
    "core": "Exp",
    "ordinal": "11",
    "description": "Used to define a category of topic-variable values. Example: MEASUREMENT, QUALITY.",
    "mandatory": false,
    "codelist": null,
    "origin": "CRF",
    "implementation_notes": ""
  },
  {
    "domain": "BS",
    "name": "BSSCAT",
    "label": "Subcategory for Biospecimen Test",
    "type": "Char",
    "length": "",
    "role": "Grouping Qualifier",
    "core": "Perm",
    "ordinal": "12",
    "description": "Used to define a further categorization of BSCAT values.",
    "mandatory": false,
    "codelist": null,
    "origin": "CRF",
    "implementation_notes": ""
  },
  {
    "domain": "BS",
    "name": "BSORRES",
    "label": "Result or Finding in Original Units",
    "type": "Char",
    "length": "",
    "role": "Result Qualifier",
    "core": "Exp",
    "ordinal": "13",
    "description": "Result of the measurement or finding as originally received or collected.",
    "mandatory": false,
    "codelist": null,
    "origin": "CRF",
    "implementation_notes": ""
  },
  {
    "domain": "BS",
    "name": "BSORRESU",
    "label": "Original Units",
    "type": "Char",
    "length": "",
    "role": "Variable Qualifier",
    "core": "Exp",
    "ordinal": "14",
    "description": "Unit for BSORRES. Examples: mg, mL.",
    "mandatory": false,
    "codelist": {
      "code": "C71620",
      "name": "Version-agnostic anchor resource for codelist C71620",
      "href": "/mdr/root/ct/sdtmct/codelists/C71620"
    },
    "origin": "CRF",
    "implementation_notes": ""
  },
  {
    "domain": "BS",
    "name": "BSSTRESC",
    "label": "Character Result/Finding in Std Format",
    "type": "Char",
    "length": "",
    "role": "Result Qualifier",
    "core": "Exp",
    "ordinal": "15",
    "description": "Contains the result value for all findings, copied or derived from BSORRES in a standard format or standard units. BSSTRESC should store all results or findings in character format; if results are numeric, they should also be stored in numeric format in BSSTRESN.",
    "mandatory": false,
    "codelist": null,
    "origin": "CRF",
    "implementation_notes": ""
  },
  {
    "domain": "BS",
    "name": "BSSTRESN",
    "label": "Numeric Result/Finding in Standard Units",
    "type": "Num",
    "length": "",
    "role": "Result Qualifier",
    "core": "Exp",
    "ordinal": "16",
    "description": "Used for continuous or numeric results or findings in standard format; copied in numeric format from BSSTRESC. BSSTRESN should store all numeric test results or findings.",
    "mandatory": false,
    "codelist": null,
    "origin": "CRF",
    "implementation_notes": ""
  },
  {
    "domain": "BS",
    "name": "BSSTRESU",
    "label": "Standard Units",
    "type": "Char",
    "length": "",
    "role": "Variable Qualifier",
    "core": "Exp",
    "ordinal": "17",
    "description": "Standardized unit used for BSSTRESC and BSSTRESN.",
    "mandatory": false,
    "codelist": {
      "code": "C71620",
      "name": "Version-agnostic anchor resource for codelist C71620",
      "href": "/mdr/root/ct/sdtmct/codelists/C71620"
    },
    "origin": "CRF",
    "implementation_notes": ""
  },
  {
    "domain": "BS",
    "name": "BSSTAT",
    "label": "Completion Status",
    "type": "Char",
    "length": "",
    "role": "Record Qualifier",
    "core": "Perm",
    "ordinal": "18",
    "description": "Used to indicate that a test was not done, or was attempted but did not generate a result. Should be null or have a value of NOT DONE.",
    "mandatory": false,
    "codelist": {
      "code": "C66789",
      "name": "Version-agnostic anchor resource for codelist C66789",
      "href": "/mdr/root/ct/sdtmct/codelists/C66789"
    },
    "origin": "CRF",
    "implementation_notes": ""
  },
  {
    "domain": "BS",
    "name": "BSREASND",
    "label": "Reason Test Not Done",
    "type": "Char",
    "length": "",
    "role": "Record Qualifier",
    "core": "Perm",
    "ordinal": "19",
    "description": "Reason not done. Used in conjunction with BSSTAT when value is NOT DONE.",
    "mandatory": false,
    "codelist": null,
    "origin": "CRF",
    "implementation_notes": ""
  },
  {
    "domain": "BS",
    "name": "BSNAM",
    "label": "Vendor Name",
    "type": "Char",
    "length": "",
    "role": "Record Qualifier",
    "core": "Perm",
    "ordinal": "20",
    "description": "Name or identifier of the vendor (e.g., laboratory) that provided the test results.",
    "mandatory": false,
    "codelist": null,
    "origin": "CRF",
    "implementation_notes": ""
  },
  {
    "domain": "BS",
    "name": "BSSPEC",
    "label": "Specimen Type",
    "type": "Char",
    "length": "",
    "role": "Record Qualifier",
    "core": "Perm",
    "ordinal": "21",
    "description": "Defines the type of specimen used for a measurement. Examples: SERUM, PLASMA, URINE, SOFT TISSUE.",
    "mandatory": false,
    "codelist": {
      "code": "C78734",
      "name": "Version-agnostic anchor resource for codelist C78734",
      "href": "/mdr/root/ct/sdtmct/codelists/C78734"
    },
    "origin": "CRF",
    "implementation_notes": ""
  },
  {
    "domain": "BS",
    "name": "BSANTREG",
    "label": "Anatomical Region of Specimen",
    "type": "Char",
    "length": "",
    "role": "Variable Qualifier",
    "core": "Perm",
    "ordinal": "22",
    "description": "Defines the specific anatomical or biological region of a tissue, organ specimen or the region from which the specimen is obtained, as defined in the protocol, such as a section or part of what is described in the BSSPEC variable. Examples: CORTEX, MEDULLA, MUCOSA.",
    "mandatory": false,
    "codelist": null,
    "origin": "CRF",
    "implementation_notes": ""
  },
  {
    "domain": "BS",
    "name": "BSSPCCND",
    "label": "Specimen Condition",
    "type": "Char",
    "length": "",
    "role": "Record Qualifier",
    "core": "Perm",
    "ordinal": "23",
    "description": "Defines the condition of the specimen. Examples: HEMOLYZED, ICTERIC, LIPEMIC.",
    "mandatory": false,
    "codelist": {
      "code": "C78733",
      "name": "Version-agnostic anchor resource for codelist C78733",
      "href": "/mdr/root/ct/sdtmct/codelists/C78733"
    },
    "origin": "CRF",
    "implementation_notes": ""
  },
  {
    "domain": "BS",
    "name": "BSMETHOD",
    "label": "Method of Test or Examination",
    "type": "Char",
    "length": "",
    "role": "Record Qualifier",
    "core": "Perm",
    "ordinal": "24",
    "description": "Method of the test or examination. Examples: SPECTROPHOTOMETRY, ELECTROPHORESIS.",
    "mandatory": false,
    "codelist": {
      "code": "C85492",
      "name": "Version-agnostic anchor resource for codelist C85492",
      "href": "/mdr/root/ct/sdtmct/codelists/C85492"
    },
    "origin": "CRF",
    "implementation_notes": ""
  },
  {
    "domain": "BS",
    "name": "BSBLFL",
    "label": "Baseline Flag",
    "type": "Char",
    "length": "",
    "role": "Record Qualifier",
    "core": "Perm",
    "ordinal": "25",
    "description": "Indicator used to identify a baseline value.",
    "mandatory": false,
    "codelist": {
      "code": "C66742",
      "name": "Version-agnostic anchor resource for codelist C66742",
      "href": "/mdr/root/ct/sdtmct/codelists/C66742"
    },
    "origin": "CRF",
    "implementation_notes": ""
  },
  {
    "domain": "BS",
    "name": "VISITNUM",
    "label": "Visit Number",
    "type": "Num",
    "length": "",
    "role": "Timing",
    "core": "Exp",
    "ordinal": "26",
    "description": "Clinical encounter number. Numeric version of VISIT, used for sorting.",
    "mandatory": false,
    "codelist": null,
    "origin": "CRF",
    "implementation_notes": ""
  },
  {
    "domain": "BS",
    "name": "VISIT",
    "label": "Visit Name",
    "type": "Char",
    "length": "",
    "role": "Timing",
    "core": "Perm",
    "ordinal": "27",
    "description": "Protocol-defined description of clinical encounter.",
    "mandatory": false,
    "codelist": null,
    "origin": "CRF",
    "implementation_notes": ""
  },
  {
    "domain": "BS",
    "name": "VISITDY",
    "label": "Planned Study Day of Visit",
    "type": "Num",
    "length": "",
    "role": "Timing",
    "core": "Perm",
    "ordinal": "28",
    "description": "Planned study day of VISIT. Should be an integer.",
    "mandatory": false,
    "codelist": null,
    "origin": "CRF",
    "implementation_notes": ""
  },
  {
    "domain": "BS",
    "name": "BSDTC",
    "label": "Date/Time of Specimen Collection",
    "type": "Char",
    "length": "",
    "role": "Timing",
    "core": "Exp",
    "ordinal": "29",
    "description": "Date and time of specimen collection.",
    "mandatory": false,
    "codelist": null,
    "origin": "CRF",
    "implementation_notes": ""
  },
  {
    "domain": "BS",
    "name": "BSDY",
    "label": "Study Day of Specimen Collection",
    "type": "Num",
    "length": "",
    "role": "Timing",
    "core": "Perm",
    "ordinal": "30",
    "description": "Study day of specimen collection relative to the sponsor-defined RFSTDTC.",
    "mandatory": false,
    "codelist": null,
    "origin": "CRF",
    "implementation_notes": ""
  },
  {
    "domain": "BS",
    "name": "BSTPT",
    "label": "Planned Time Point Name",
    "type": "Char",
    "length": "",
    "role": "Timing",
    "core": "Perm",
    "ordinal": "31",
    "description": "Text description of time when a measurement or observation should be taken as defined in the protocol. This may be represented as an elapsed time relative to a fixed reference point, such as time of last dose. See BSTPTNUM and BSTPTREF.",
    "mandatory": false,
    "codelist": null,
    "origin": "CRF",
    "implementation_notes": ""
  },
  {
    "domain": "BS",
    "name": "BSTPTNUM",
    "label": "Planned Time Point Number",
    "type": "Num",
    "length": "",
    "role": "Timing",
    "core": "Perm",
    "ordinal": "32",
    "description": "Numerical version of BSTPT used in sorting.",
    "mandatory": false,
    "codelist": null,
    "origin": "CRF",
    "implementation_notes": ""
  },
  {
    "domain": "BS",
    "name": "BSELTM",
    "label": "Planned Elapsed Time from Time Point Ref",
    "type": "Char",
    "length": "",
    "role": "Timing",
    "core": "Perm",
    "ordinal": "33",
    "description": "Elapsed time relative to a planned fixed reference (BSTPTREF). This variable is useful where there are repetitive measures. Not a clock time or a date time variable, but an interval, represented as ISO duration.",
    "mandatory": false,
    "codelist": null,
    "origin": "CRF",
    "implementation_notes": ""
  },
  {
    "domain": "BS",
    "name": "BSTPTREF",
    "label": "Time Point Reference",
    "type": "Char",
    "length": "",
    "role": "Timing",
    "core": "Perm",
    "ordinal": "34",
    "description": "Name of the fixed reference point referred to by BSELTM, BSTPTNUM, and BSTPT. Examples: PREVIOUS DOSE, PREVIOUS MEAL.",
    "mandatory": false,
    "codelist": null,
    "origin": "CRF",
    "implementation_notes": ""
  },
  {
    "domain": "BS",
    "name": "BSRFTDTC",
    "label": "Date/Time of Reference Time Point",
    "type": "Char",
    "length": "",
    "role": "Timing",
    "core": "Perm",
    "ordinal": "35",
    "description": "Date/time for a fixed reference time point defined by BSTPTREF.",
    "mandatory": false,
    "codelist": null,
    "origin": "CRF",
    "implementation_notes": ""
  },
  {
    "domain": "CE",
    "name": "STUDYID",
    "label": "Study Identifier",
    "type": "Char",
    "length": "",
    "role": "Identifier",
    "core": "Req",
    "ordinal": "1",
    "description": "Unique identifier for a study.",
    "mandatory": false,
    "codelist": null,
    "origin": "CRF",
    "implementation_notes": ""
  },
  {
    "domain": "CE",
    "name": "DOMAIN",
    "label": "Domain Abbreviation",
    "type": "Char",
    "length": "",
    "role": "Identifier",
    "core": "Req",
    "ordinal": "2",
    "description": "Two-character abbreviation for the domain.",
    "mandatory": false,
    "codelist": null,
    "origin": "CRF",
    "implementation_notes": ""
  },
  {
    "domain": "CE",
    "name": "USUBJID",
    "label": "Unique Subject Identifier",
    "type": "Char",
    "length": "",
    "role": "Identifier",
    "core": "Req",
    "ordinal": "3",
    "description": "Identifier used to uniquely identify a subject across all studies for all applications or submissions involving the product.",
    "mandatory": false,
    "codelist": null,
    "origin": "CRF",
    "implementation_notes": ""
  },
  {
    "domain": "CE",
    "name": "CESEQ",
    "label": "Sequence Number",
    "type": "Num",
    "length": "",
    "role": "Identifier",
    "core": "Req",
    "ordinal": "4",
    "description": "Sequence number given to ensure uniqueness of subject records within a domain. May be any valid number.",
    "mandatory": false,
    "codelist": null,
    "origin": "CRF",
    "implementation_notes": ""
  },
  {
    "domain": "CE",
    "name": "CEGRPID",
    "label": "Group ID",
    "type": "Char",
    "length": "",
    "role": "Identifier",
    "core": "Perm",
    "ordinal": "5",
    "description": "Used to link together a block of related records for a subject within a domain.",
    "mandatory": false,
    "codelist": null,
    "origin": "CRF",
    "implementation_notes": ""
  },
  {
    "domain": "CE",
    "name": "CEREFID",
    "label": "Reference ID",
    "type": "Char",
    "length": "",
    "role": "Identifier",
    "core": "Perm",
    "ordinal": "6",
    "description": "Internal or external identifier (e.g., lab specimen ID, UUID for an ECG waveform or medical image).",
    "mandatory": false,
    "codelist": null,
    "origin": "CRF",
    "implementation_notes": ""
  },
  {
    "domain": "CE",
    "name": "CESPID",
    "label": "Sponsor-Defined Identifier",
    "type": "Char",
    "length": "",
    "role": "Identifier",
    "core": "Perm",
    "ordinal": "7",
    "description": "Sponsor-defined identifier.",
    "mandatory": false,
    "codelist": null,
    "origin": "CRF",
    "implementation_notes": ""
  },
  {
    "domain": "CE",
    "name": "CETERM",
    "label": "Reported Term for the Clinical Event",
    "type": "Char",
    "length": "",
    "role": "Topic",
    "core": "Req",
    "ordinal": "8",
    "description": "Term for the medical condition or event. Most likely preprinted on CRF.",
    "mandatory": false,
    "codelist": null,
    "origin": "CRF",
    "implementation_notes": ""
  },
  {
    "domain": "CE",
    "name": "CEDECOD",
    "label": "Dictionary-Derived Term",
    "type": "Char",
    "length": "",
    "role": "Synonym Qualifier",
    "core": "Perm",
    "ordinal": "9",
    "description": "Controlled terminology for the name of the clinical event. The sponsor is expected to provide the dictionary name and version used to map the terms utilizing the external codelist element in the Define-XML document.",
    "mandatory": false,
    "codelist": null,
    "origin": "CRF",
    "implementation_notes": ""
  },
  {
    "domain": "CE",
    "name": "CECAT",
    "label": "Category for the Clinical Event",
    "type": "Char",
    "length": "",
    "role": "Grouping Qualifier",
    "core": "Perm",
    "ordinal": "10",
    "description": "Used to define a category of related records.",
    "mandatory": false,
    "codelist": null,
    "origin": "CRF",
    "implementation_notes": ""
  },
  {
    "domain": "CE",
    "name": "CESCAT",
    "label": "Subcategory for the Clinical Event",
    "type": "Char",
    "length": "",
    "role": "Grouping Qualifier",
    "core": "Perm",
    "ordinal": "11",
    "description": "A further categorization of the condition or event.",
    "mandatory": false,
    "codelist": null,
    "origin": "CRF",
    "implementation_notes": ""
  },
  {
    "domain": "CE",
    "name": "CEPRESP",
    "label": "Clinical Event Pre-specified",
    "type": "Char",
    "length": "",
    "role": "Variable Qualifier",
    "core": "Perm",
    "ordinal": "12",
    "description": "Used to indicate whether the event in CETERM was prespecified. Value is \"Y\" for prespecified events and null for spontaneously reported events.",
    "mandatory": false,
    "codelist": {
      "code": "C66742",
      "name": "Version-agnostic anchor resource for codelist C66742",
      "href": "/mdr/root/ct/sdtmct/codelists/C66742"
    },
    "origin": "CRF",
    "implementation_notes": ""
  },
  {
    "domain": "CE",
    "name": "CEOCCUR",
    "label": "Clinical Event Occurrence",
    "type": "Char",
    "length": "",
    "role": "Record Qualifier",
    "core": "Perm",
    "ordinal": "13",
    "description": "Used when the occurrence of specific events is solicited, to indicate whether or not a clinical event occurred. Values are null for spontaneously reported events.",
    "mandatory": false,
    "codelist": {
      "code": "C66742",
      "name": "Version-agnostic anchor resource for codelist C66742",
      "href": "/mdr/root/ct/sdtmct/codelists/C66742"
    },
    "origin": "CRF",
    "implementation_notes": ""
  },
  {
    "domain": "CE",
    "name": "CESTAT",
    "label": "Completion Status",
    "type": "Char",
    "length": "",
    "role": "Record Qualifier",
    "core": "Perm",
    "ordinal": "14",
    "description": "The status indicates that a question from a prespecified list was not answered.",
    "mandatory": false,
    "codelist": {
      "code": "C66789",
      "name": "Version-agnostic anchor resource for codelist C66789",
      "href": "/mdr/root/ct/sdtmct/codelists/C66789"
    },
    "origin": "CRF",
    "implementation_notes": ""
  },
  {
    "domain": "CE",
    "name": "CEREASND",
    "label": "Reason Clinical Event Not Collected",
    "type": "Char",
    "length": "",
    "role": "Record Qualifier",
    "core": "Perm",
    "ordinal": "15",
    "description": "Describes the reason clinical event data was not collected. Used in conjunction with CESTAT when value is \"NOT DONE\".",
    "mandatory": false,
    "codelist": null,
    "origin": "CRF",
    "implementation_notes": ""
  },
  {
    "domain": "CE",
    "name": "CEBODSYS",
    "label": "Body System or Organ Class",
    "type": "Char",
    "length": "",
    "role": "Record Qualifier",
    "core": "Perm",
    "ordinal": "16",
    "description": "Dictionary-derived. Body system or organ class that is involved in an event or measurement from a standard hierarchy (e.g., MedDRA). When using a multi-axial dictionary such as MedDRA, this should contain the SOC used for the sponsor's analyses and summary tables, which may not necessarily be the primary SOC.",
    "mandatory": false,
    "codelist": null,
    "origin": "CRF",
    "implementation_notes": ""
  },
  {
    "domain": "CE",
    "name": "CESEV",
    "label": "Severity/Intensity",
    "type": "Char",
    "length": "",
    "role": "Record Qualifier",
    "core": "Perm",
    "ordinal": "17",
    "description": "The severity or intensity of the event. Examples: \"MILD\", \"MODERATE\", \"SEVERE\".",
    "mandatory": false,
    "codelist": {
      "code": "C165643",
      "name": "Version-agnostic anchor resource for codelist C165643",
      "href": "/mdr/root/ct/sdtmct/codelists/C165643"
    },
    "origin": "CRF",
    "implementation_notes": ""
  },
  {
    "domain": "CE",
    "name": "CETOXGR",
    "label": "Standard Toxicity Grade",
    "type": "Char",
    "length": "",
    "role": "Record Qualifier",
    "core": "Perm",
    "ordinal": "18",
    "description": "Toxicity grade according to a standard toxicity scale (e.g., Common Terminology Criteria for Adverse Events (CTCAE) v3.0). Sponsor should specify name of the scale and version used in the metadata. If value is from a numeric scale, represent only the number (e.g., \"2\", not \"Grade 2\").",
    "mandatory": false,
    "codelist": null,
    "origin": "CRF",
    "implementation_notes": ""
  },
  {
    "domain": "CE",
    "name": "TAETORD",
    "label": "Planned Order of Element within Arm",
    "type": "Num",
    "length": "",
    "role": "Timing",
    "core": "Perm",
    "ordinal": "19",
    "description": "Number that gives the planned order of the element within the arm for the element in which the clinical event started.",
    "mandatory": false,
    "codelist": null,
    "origin": "CRF",
    "implementation_notes": ""
  },
  {
    "domain": "CE",
    "name": "EPOCH",
    "label": "Epoch",
    "type": "Char",
    "length": "",
    "role": "Timing",
    "core": "Perm",
    "ordinal": "20",
    "description": "Epoch associated with the start date/time of the clinical event.",
    "mandatory": false,
    "codelist": {
      "code": "C99079",
      "name": "Version-agnostic anchor resource for codelist C99079",
      "href": "/mdr/root/ct/sdtmct/codelists/C99079"
    },
    "origin": "CRF",
    "implementation_notes": ""
  },
  {
    "domain": "CE",
    "name": "CEDTC",
    "label": "Date/Time of Event Collection",
    "type": "Char",
    "length": "",
    "role": "Timing",
    "core": "Perm",
    "ordinal": "21",
    "description": "Collection date and time for the clinical event observation represented in ISO 8601 character format.",
    "mandatory": false,
    "codelist": null,
    "origin": "CRF",
    "implementation_notes": ""
  },
  {
    "domain": "CE",
    "name": "CESTDTC",
    "label": "Start Date/Time of Clinical Event",
    "type": "Char",
    "length": "",
    "role": "Timing",
    "core": "Perm",
    "ordinal": "22",
    "description": "Start date/time of the clinical event represented in ISO 8601 character format.",
    "mandatory": false,
    "codelist": null,
    "origin": "CRF",
    "implementation_notes": ""
  },
  {
    "domain": "CE",
    "name": "CEENDTC",
    "label": "End Date/Time of Clinical Event",
    "type": "Char",
    "length": "",
    "role": "Timing",
    "core": "Perm",
    "ordinal": "23",
    "description": "End date/time of the clinical event, represented in ISO 8601 character format.",
    "mandatory": false,
    "codelist": null,
    "origin": "CRF",
    "implementation_notes": ""
  },
  {
    "domain": "CE",
    "name": "CEDY",
    "label": "Study Day of Event Collection",
    "type": "Num",
    "length": "",
    "role": "Timing",
    "core": "Perm",
    "ordinal": "24",
    "description": "Study day of clinical event collection, measured as integer days. Algorithm for calculations must be relative to the sponsor-defined RFSTDTC variable in Demographics. This formula should be consistent across the submission.",
    "mandatory": false,
    "codelist": null,
    "origin": "CRF",
    "implementation_notes": ""
  },
  {
    "domain": "CE",
    "name": "CESTDY",
    "label": "Study Day of Start of Event",
    "type": "Num",
    "length": "",
    "role": "Timing",
    "core": "Perm",
    "ordinal": "25",
    "description": "Actual study day of start of the clinical event expressed in integer days relative to the sponsor-defined RFSTDTC in Demographics.",
    "mandatory": false,
    "codelist": null,
    "origin": "CRF",
    "implementation_notes": ""
  },
  {
    "domain": "CE",
    "name": "CEENDY",
    "label": "Study Day of End of Event",
    "type": "Num",
    "length": "",
    "role": "Timing",
    "core": "Perm",
    "ordinal": "26",
    "description": "Actual study day of end of the clinical event expressed in integer days relative to the sponsor-defined RFSTDTC in Demographics.",
    "mandatory": false,
    "codelist": null,
    "origin": "CRF",
    "implementation_notes": ""
  },
  {
    "domain": "CE",
    "name": "CESTRF",
    "label": "Start Relative to Reference Period",
    "type": "Char",
    "length": "",
    "role": "Timing",
    "core": "Perm",
    "ordinal": "27",
    "description": "Describes the start of the clinical event relative to the sponsor-defined reference period. The sponsor-defined reference period is a continuous period of time defined by a discrete starting point and a discrete ending point (represented by RFSTDTC and RFENDTC in Demographics). \\n Not all values of the codelist are allowable for this variable. See Section 4.4.7, Use of Relative Timing Variables.",
    "mandatory": false,
    "codelist": {
      "code": "C66728",
      "name": "Version-agnostic anchor resource for codelist C66728",
      "href": "/mdr/root/ct/sdtmct/codelists/C66728"
    },
    "origin": "CRF",
    "implementation_notes": ""
  },
  {
    "domain": "CE",
    "name": "CEENRF",
    "label": "End Relative to Reference Period",
    "type": "Char",
    "length": "",
    "role": "Timing",
    "core": "Perm",
    "ordinal": "28",
    "description": "Describes the end of the event relative to the sponsor-defined reference period. The sponsor-defined reference period is a continuous period of time defined by a discrete starting point and a discrete ending point (represented by RFSTDTC and RFENDTC in Demographics). \\n Not all values of the codelist are allowable for this variable. See Section 4.4.7, Use of Relative Timing Variables.",
    "mandatory": false,
    "codelist": {
      "code": "C66728",
      "name": "Version-agnostic anchor resource for codelist C66728",
      "href": "/mdr/root/ct/sdtmct/codelists/C66728"
    },
    "origin": "CRF",
    "implementation_notes": ""
  },
  {
    "domain": "CE",
    "name": "CESTRTPT",
    "label": "Start Relative to Reference Time Point",
    "type": "Char",
    "length": "",
    "role": "Timing",
    "core": "Perm",
    "ordinal": "29",
    "description": "Identifies the start of the observation as being before or after the reference time point defined by variable CESTTPT. \\n Not all values of the codelist are allowable for this variable. See Section 4.4.7, Use of Relative Timing Variables.",
    "mandatory": false,
    "codelist": {
      "code": "C66728",
      "name": "Version-agnostic anchor resource for codelist C66728",
      "href": "/mdr/root/ct/sdtmct/codelists/C66728"
    },
    "origin": "CRF",
    "implementation_notes": ""
  },
  {
    "domain": "CE",
    "name": "CESTTPT",
    "label": "Start Reference Time Point",
    "type": "Char",
    "length": "",
    "role": "Timing",
    "core": "Perm",
    "ordinal": "30",
    "description": "Description or date/time in ISO 8601 character format of the sponsor-defined reference point referred to by --STRTPT. Examples: \"2003-12-15\", \"VISIT 1\".",
    "mandatory": false,
    "codelist": null,
    "origin": "CRF",
    "implementation_notes": ""
  },
  {
    "domain": "CE",
    "name": "CEENRTPT",
    "label": "End Relative to Reference Time Point",
    "type": "Char",
    "length": "",
    "role": "Timing",
    "core": "Perm",
    "ordinal": "31",
    "description": "Identifies the end of the observation as being before or after the sponsor-defined reference time point defined by variable CEENTPT. \\n Not all values of the codelist are allowable for this variable. See Section 4.4.7, Use of Relative Timing Variables.",
    "mandatory": false,
    "codelist": {
      "code": "C66728",
      "name": "Version-agnostic anchor resource for codelist C66728",
      "href": "/mdr/root/ct/sdtmct/codelists/C66728"
    },
    "origin": "CRF",
    "implementation_notes": ""
  },
  {
    "domain": "CE",
    "name": "CEENTPT",
    "label": "End Reference Time Point",
    "type": "Char",
    "length": "",
    "role": "Timing",
    "core": "Perm",
    "ordinal": "32",
    "description": "Description or date/time in ISO 8601 character format of the reference point referred to by CEENRTPT. Examples: \"2003-12-25\", \"VISIT 2\".",
    "mandatory": false,
    "codelist": null,
    "origin": "CRF",
    "implementation_notes": ""
  },
  {
    "domain": "CM",
    "name": "STUDYID",
    "label": "Study Identifier",
    "type": "Char",
    "length": "",
    "role": "Identifier",
    "core": "Req",
    "ordinal": "1",
    "description": "Unique identifier for a study.",
    "mandatory": false,
    "codelist": null,
    "origin": "CRF",
    "implementation_notes": ""
  },
  {
    "domain": "CM",
    "name": "DOMAIN",
    "label": "Domain Abbreviation",
    "type": "Char",
    "length": "",
    "role": "Identifier",
    "core": "Req",
    "ordinal": "2",
    "description": "Two-character abbreviation for the domain.",
    "mandatory": false,
    "codelist": null,
    "origin": "CRF",
    "implementation_notes": ""
  },
  {
    "domain": "CM",
    "name": "USUBJID",
    "label": "Unique Subject Identifier",
    "type": "Char",
    "length": "",
    "role": "Identifier",
    "core": "Req",
    "ordinal": "3",
    "description": "Identifier used to uniquely identify a subject across all studies for all applications or submissions involving the product.",
    "mandatory": false,
    "codelist": null,
    "origin": "CRF",
    "implementation_notes": ""
  },
  {
    "domain": "CM",
    "name": "CMSEQ",
    "label": "Sequence Number",
    "type": "Num",
    "length": "",
    "role": "Identifier",
    "core": "Req",
    "ordinal": "4",
    "description": "Sequence number to ensure uniqueness of subject records within a domain. May be any valid number.",
    "mandatory": false,
    "codelist": null,
    "origin": "CRF",
    "implementation_notes": ""
  },
  {
    "domain": "CM",
    "name": "CMGRPID",
    "label": "Group ID",
    "type": "Char",
    "length": "",
    "role": "Identifier",
    "core": "Perm",
    "ordinal": "5",
    "description": "Used to tie together a block of related records in a single domain for a subject.",
    "mandatory": false,
    "codelist": null,
    "origin": "CRF",
    "implementation_notes": ""
  },
  {
    "domain": "CM",
    "name": "CMSPID",
    "label": "Sponsor-Defined Identifier",
    "type": "Char",
    "length": "",
    "role": "Identifier",
    "core": "Perm",
    "ordinal": "6",
    "description": "Sponsor-defined reference number. Example: a number preprinted on the CRF as an explicit line identifier or record identifier defined in the sponsor's operational database. Example: line number on a concomitant medication page.",
    "mandatory": false,
    "codelist": null,
    "origin": "CRF",
    "implementation_notes": ""
  },
  {
    "domain": "CM",
    "name": "CMTRT",
    "label": "Reported Name of Drug, Med, or Therapy",
    "type": "Char",
    "length": "",
    "role": "Topic",
    "core": "Req",
    "ordinal": "7",
    "description": "Verbatim medication name that is either preprinted or collected on a CRF.",
    "mandatory": false,
    "codelist": null,
    "origin": "CRF",
    "implementation_notes": ""
  },
  {
    "domain": "CM",
    "name": "CMMODIFY",
    "label": "Modified Reported Name",
    "type": "Char",
    "length": "",
    "role": "Synonym Qualifier",
    "core": "Perm",
    "ordinal": "8",
    "description": "If CMTRT is modified to facilitate coding, then CMMODIFY will contain the modified text.",
    "mandatory": false,
    "codelist": null,
    "origin": "CRF",
    "implementation_notes": ""
  },
  {
    "domain": "CM",
    "name": "CMDECOD",
    "label": "Standardized Medication Name",
    "type": "Char",
    "length": "",
    "role": "Synonym Qualifier",
    "core": "Perm",
    "ordinal": "9",
    "description": "Standardized or dictionary-derived text description of CMTRT or CMMODIFY. Equivalent to the generic drug name in WHO Drug. The sponsor is expected to provide the dictionary name and version used to map the terms utilizing the external codelist element in the Define-XML document. If an intervention term does not have a decode value in the dictionary, then CMDECOD will be left blank.",
    "mandatory": false,
    "codelist": null,
    "origin": "CRF",
    "implementation_notes": ""
  },
  {
    "domain": "CM",
    "name": "CMCAT",
    "label": "Category for Medication",
    "type": "Char",
    "length": "",
    "role": "Grouping Qualifier",
    "core": "Perm",
    "ordinal": "10",
    "description": "Used to define a category of medications/treatment. Examples: \"PRIOR\", \"CONCOMITANT\", \"ANTI-CANCER MEDICATION\", \"GENERAL CONMED\".",
    "mandatory": false,
    "codelist": null,
    "origin": "CRF",
    "implementation_notes": ""
  },
  {
    "domain": "CM",
    "name": "CMSCAT",
    "label": "Subcategory for Medication",
    "type": "Char",
    "length": "",
    "role": "Grouping Qualifier",
    "core": "Perm",
    "ordinal": "11",
    "description": "A further categorization of medications/treatment. Examples: \"CHEMOTHERAPY\", \"HORMONAL THERAPY\", \"ALTERNATIVE THERAPY\".",
    "mandatory": false,
    "codelist": null,
    "origin": "CRF",
    "implementation_notes": ""
  },
  {
    "domain": "CM",
    "name": "CMPRESP",
    "label": "CM Pre-specified",
    "type": "Char",
    "length": "",
    "role": "Variable Qualifier",
    "core": "Perm",
    "ordinal": "12",
    "description": "Used to indicate whether (\"Y\"/null) information about the use of a specific medication was solicited on the CRF.",
    "mandatory": false,
    "codelist": {
      "code": "C66742",
      "name": "Version-agnostic anchor resource for codelist C66742",
      "href": "/mdr/root/ct/sdtmct/codelists/C66742"
    },
    "origin": "CRF",
    "implementation_notes": ""
  },
  {
    "domain": "CM",
    "name": "CMOCCUR",
    "label": "CM Occurrence",
    "type": "Char",
    "length": "",
    "role": "Record Qualifier",
    "core": "Perm",
    "ordinal": "13",
    "description": "When the use of a specific medication is solicited. CMOCCUR is used to indicate whether (\"Y\"/\"N\") use of the medication occurred. Values are null for medications not specifically solicited.",
    "mandatory": false,
    "codelist": {
      "code": "C66742",
      "name": "Version-agnostic anchor resource for codelist C66742",
      "href": "/mdr/root/ct/sdtmct/codelists/C66742"
    },
    "origin": "CRF",
    "implementation_notes": ""
  },
  {
    "domain": "CM",
    "name": "CMSTAT",
    "label": "Completion Status",
    "type": "Char",
    "length": "",
    "role": "Record Qualifier",
    "core": "Perm",
    "ordinal": "14",
    "description": "Used to indicate that a question about the occurrence of a prespecified intervention was not answered. Should be null or have a value of \"NOT DONE\".",
    "mandatory": false,
    "codelist": {
      "code": "C66789",
      "name": "Version-agnostic anchor resource for codelist C66789",
      "href": "/mdr/root/ct/sdtmct/codelists/C66789"
    },
    "origin": "CRF",
    "implementation_notes": ""
  },
  {
    "domain": "CM",
    "name": "CMREASND",
    "label": "Reason Medication Not Collected",
    "type": "Char",
    "length": "",
    "role": "Record Qualifier",
    "core": "Perm",
    "ordinal": "15",
    "description": "Reason not done. Used in conjunction with CMSTAT when value is \"NOT DONE\".",
    "mandatory": false,
    "codelist": null,
    "origin": "CRF",
    "implementation_notes": ""
  },
  {
    "domain": "CM",
    "name": "CMINDC",
    "label": "Indication",
    "type": "Char",
    "length": "",
    "role": "Record Qualifier",
    "core": "Perm",
    "ordinal": "16",
    "description": "Denotes why a medication was taken or administered. Examples: \"NAUSEA\", \"HYPERTENSION\".",
    "mandatory": false,
    "codelist": null,
    "origin": "CRF",
    "implementation_notes": ""
  },
  {
    "domain": "CM",
    "name": "CMCLAS",
    "label": "Medication Class",
    "type": "Char",
    "length": "",
    "role": "Variable Qualifier",
    "core": "Perm",
    "ordinal": "17",
    "description": "Drug class. May be obtained from coding. When coding to a single class, populate with class value. If using a dictionary and coding to multiple classes, then follow Section 4.2.8.3, Multiple Values for a Non-result Qualifier Variable, or omit CMCLAS.",
    "mandatory": false,
    "codelist": null,
    "origin": "CRF",
    "implementation_notes": ""
  },
  {
    "domain": "CM",
    "name": "CMCLASCD",
    "label": "Medication Class Code",
    "type": "Char",
    "length": "",
    "role": "Variable Qualifier",
    "core": "Perm",
    "ordinal": "18",
    "description": "Class code corresponding to CMCLAS. Drug class. May be obtained from coding. When coding to a single class, populate with class code. If using a dictionary and coding to multiple classes, then follow Section 4.2.8.3, Multiple Values for a Non-result Qualifier Variable, or omit CMCLASCD.",
    "mandatory": false,
    "codelist": null,
    "origin": "CRF",
    "implementation_notes": ""
  },
  {
    "domain": "CM",
    "name": "CMDOSE",
    "label": "Dose per Administration",
    "type": "Num",
    "length": "",
    "role": "Record Qualifier",
    "core": "Perm",
    "ordinal": "19",
    "description": "Amount of CMTRT given. Not populated when CMDOSTXT is populated.",
    "mandatory": false,
    "codelist": null,
    "origin": "CRF",
    "implementation_notes": ""
  },
  {
    "domain": "CM",
    "name": "CMDOSTXT",
    "label": "Dose Description",
    "type": "Char",
    "length": "",
    "role": "Record Qualifier",
    "core": "Perm",
    "ordinal": "20",
    "description": "Dosing amounts or a range of dosing information collected in text form. Units may be stored in CMDOSU. Examples: \"200-400\", \"15-20\". Not populated when CMDOSE is populated.",
    "mandatory": false,
    "codelist": null,
    "origin": "CRF",
    "implementation_notes": ""
  },
  {
    "domain": "CM",
    "name": "CMDOSU",
    "label": "Dose Units",
    "type": "Char",
    "length": "",
    "role": "Variable Qualifier",
    "core": "Perm",
    "ordinal": "21",
    "description": "Units for CMDOSE, CMDOSTOT, or CMDOSTXT. Examples: \"ng\", \"mg\", \"mg/kg\".",
    "mandatory": false,
    "codelist": {
      "code": "C71620",
      "name": "Version-agnostic anchor resource for codelist C71620",
      "href": "/mdr/root/ct/sdtmct/codelists/C71620"
    },
    "origin": "CRF",
    "implementation_notes": ""
  },
  {
    "domain": "CM",
    "name": "CMDOSFRM",
    "label": "Dose Form",
    "type": "Char",
    "length": "",
    "role": "Variable Qualifier",
    "core": "Perm",
    "ordinal": "22",
    "description": "Dose form for CMTRT. Examples: \"TABLET\", \"LOTION\".",
    "mandatory": false,
    "codelist": {
      "code": "C66726",
      "name": "Version-agnostic anchor resource for codelist C66726",
      "href": "/mdr/root/ct/sdtmct/codelists/C66726"
    },
    "origin": "CRF",
    "implementation_notes": ""
  },
  {
    "domain": "CM",
    "name": "CMDOSFRQ",
    "label": "Dosing Frequency per Interval",
    "type": "Char",
    "length": "",
    "role": "Record Qualifier",
    "core": "Perm",
    "ordinal": "23",
    "description": "Usually expressed as the number of repeated administrations of CMDOSE within a specific time period. Examples: \"BID\" (twice daily), \"Q12H\" (every 12 hours).",
    "mandatory": false,
    "codelist": {
      "code": "C71113",
      "name": "Version-agnostic anchor resource for codelist C71113",
      "href": "/mdr/root/ct/sdtmct/codelists/C71113"
    },
    "origin": "CRF",
    "implementation_notes": ""
  },
  {
    "domain": "CM",
    "name": "CMDOSTOT",
    "label": "Total Daily Dose",
    "type": "Num",
    "length": "",
    "role": "Record Qualifier",
    "core": "Perm",
    "ordinal": "24",
    "description": "Total daily dose of CMTRT using the units in CMDOSU. Used when dosing is collected as total daily dose. Total dose over a period other than day could be recorded in a separate supplemental qualifier variable.",
    "mandatory": false,
    "codelist": null,
    "origin": "CRF",
    "implementation_notes": ""
  },
  {
    "domain": "CM",
    "name": "CMDOSRGM",
    "label": "Intended Dose Regimen",
    "type": "Char",
    "length": "",
    "role": "Record Qualifier",
    "core": "Perm",
    "ordinal": "25",
    "description": "Text description of the (intended) schedule or regimen for the Intervention. Example: \"TWO WEEKS ON, TWO WEEKS OFF\".",
    "mandatory": false,
    "codelist": null,
    "origin": "CRF",
    "implementation_notes": ""
  },
  {
    "domain": "CM",
    "name": "CMROUTE",
    "label": "Route of Administration",
    "type": "Char",
    "length": "",
    "role": "Variable Qualifier",
    "core": "Perm",
    "ordinal": "26",
    "description": "Route of administration for the intervention. Examples: \"ORAL\", \"INTRAVENOUS\".",
    "mandatory": false,
    "codelist": {
      "code": "C66729",
      "name": "Version-agnostic anchor resource for codelist C66729",
      "href": "/mdr/root/ct/sdtmct/codelists/C66729"
    },
    "origin": "CRF",
    "implementation_notes": ""
  },
  {
    "domain": "CM",
    "name": "CMADJ",
    "label": "Reason for Dose Adjustment",
    "type": "Char",
    "length": "",
    "role": "Record Qualifier",
    "core": "Perm",
    "ordinal": "27",
    "description": "Describes reason or explanation of why a dose is adjusted. Examples: \"ADVERSE EVENT\", \"INSUFFICIENT RESPONSE\", \"NON-MEDICAL REASON\".",
    "mandatory": false,
    "codelist": null,
    "origin": "CRF",
    "implementation_notes": ""
  },
  {
    "domain": "CM",
    "name": "CMRSDISC",
    "label": "Reason the Intervention Was Discontinued",
    "type": "Char",
    "length": "",
    "role": "Record Qualifier",
    "core": "Perm",
    "ordinal": "28",
    "description": "When dosing of a treatment is recorded over multiple successive records, this variable is applicable only for the (chronologically) last record for the treatment.",
    "mandatory": false,
    "codelist": null,
    "origin": "CRF",
    "implementation_notes": ""
  },
  {
    "domain": "CM",
    "name": "TAETORD",
    "label": "Planned Order of Element within Arm",
    "type": "Num",
    "length": "",
    "role": "Timing",
    "core": "Perm",
    "ordinal": "29",
    "description": "Number that gives the planned order of the element within the arm for the element in which the medication administration started. Null for medications that started before study participation.",
    "mandatory": false,
    "codelist": null,
    "origin": "CRF",
    "implementation_notes": ""
  },
  {
    "domain": "CM",
    "name": "EPOCH",
    "label": "Epoch",
    "type": "Char",
    "length": "",
    "role": "Timing",
    "core": "Perm",
    "ordinal": "30",
    "description": "Epoch associated with the start date/time of the medication administration. Null for medications that started before study participation.",
    "mandatory": false,
    "codelist": {
      "code": "C99079",
      "name": "Version-agnostic anchor resource for codelist C99079",
      "href": "/mdr/root/ct/sdtmct/codelists/C99079"
    },
    "origin": "CRF",
    "implementation_notes": ""
  },
  {
    "domain": "CM",
    "name": "CMSTDTC",
    "label": "Start Date/Time of Medication",
    "type": "Char",
    "length": "",
    "role": "Timing",
    "core": "Perm",
    "ordinal": "31",
    "description": "Start date/time of the medication administration represented in ISO 8601 character format.",
    "mandatory": false,
    "codelist": null,
    "origin": "CRF",
    "implementation_notes": ""
  },
  {
    "domain": "CM",
    "name": "CMENDTC",
    "label": "End Date/Time of Medication",
    "type": "Char",
    "length": "",
    "role": "Timing",
    "core": "Perm",
    "ordinal": "32",
    "description": "End date/time of the medication administration represented in ISO 8601 character format.",
    "mandatory": false,
    "codelist": null,
    "origin": "CRF",
    "implementation_notes": ""
  },
  {
    "domain": "CM",
    "name": "CMSTDY",
    "label": "Study Day of Start of Medication",
    "type": "Num",
    "length": "",
    "role": "Timing",
    "core": "Perm",
    "ordinal": "33",
    "description": "Study day of start of medication relative to the sponsor-defined RFSTDTC.",
    "mandatory": false,
    "codelist": null,
    "origin": "CRF",
    "implementation_notes": ""
  },
  {
    "domain": "CM",
    "name": "CMENDY",
    "label": "Study Day of End of Medication",
    "type": "Num",
    "length": "",
    "role": "Timing",
    "core": "Perm",
    "ordinal": "34",
    "description": "Study day of end of medication relative to the sponsor-defined RFSTDTC.",
    "mandatory": false,
    "codelist": null,
    "origin": "CRF",
    "implementation_notes": ""
  },
  {
    "domain": "CM",
    "name": "CMDUR",
    "label": "Duration",
    "type": "Char",
    "length": "",
    "role": "Timing",
    "core": "Perm",
    "ordinal": "35",
    "description": "Collected duration for a treatment episode. Used only if collected on the CRF and not derived from start and end date/times.",
    "mandatory": false,
    "codelist": null,
    "origin": "CRF",
    "implementation_notes": ""
  },
  {
    "domain": "CM",
    "name": "CMSTRF",
    "label": "Start Relative to Reference Period",
    "type": "Char",
    "length": "",
    "role": "Timing",
    "core": "Perm",
    "ordinal": "36",
    "description": "Describes the start of the medication relative to sponsor-defined reference period. The sponsor-defined reference period is a continuous period of time defined by a discrete starting point and a discrete ending point (represented by RFSTDTC and RFENDTC in Demographics). If information such as \"PRIOR\" was collected, this information may be translated into CMSTRF. \\n Not all values of the codelist are allowable for this variable. See Section 4.4.7, Use of Relative Timing Variables.",
    "mandatory": false,
    "codelist": {
      "code": "C66728",
      "name": "Version-agnostic anchor resource for codelist C66728",
      "href": "/mdr/root/ct/sdtmct/codelists/C66728"
    },
    "origin": "CRF",
    "implementation_notes": ""
  },
  {
    "domain": "CM",
    "name": "CMENRF",
    "label": "End Relative to Reference Period",
    "type": "Char",
    "length": "",
    "role": "Timing",
    "core": "Perm",
    "ordinal": "37",
    "description": "Describes the end of the medication relative to the sponsor-defined reference period. The sponsor-defined reference period is a continuous period of time defined by a discrete starting point and a discrete ending point (represented by RFSTDTC and RFENDTC in Demographics). If information such as \"PRIOR\", \"ONGOING, or \"CONTINUING\" was collected, this information may be translated into CMENRF. \\n Not all values of the codelist are allowable for this variable. See Section 4.4.7, Use of Relative Timing Variables.",
    "mandatory": false,
    "codelist": {
      "code": "C66728",
      "name": "Version-agnostic anchor resource for codelist C66728",
      "href": "/mdr/root/ct/sdtmct/codelists/C66728"
    },
    "origin": "CRF",
    "implementation_notes": ""
  },
  {
    "domain": "CM",
    "name": "CMSTRTPT",
    "label": "Start Relative to Reference Time Point",
    "type": "Char",
    "length": "",
    "role": "Timing",
    "core": "Perm",
    "ordinal": "38",
    "description": "Identifies the start of the medication as being before or after the sponsor-defined reference time point defined by variable CMSTTPT. \\n Not all values of the codelist are allowable for this variable. See Section 4.4.7, Use of Relative Timing Variables.",
    "mandatory": false,
    "codelist": {
      "code": "C66728",
      "name": "Version-agnostic anchor resource for codelist C66728",
      "href": "/mdr/root/ct/sdtmct/codelists/C66728"
    },
    "origin": "CRF",
    "implementation_notes": ""
  },
  {
    "domain": "CM",
    "name": "CMSTTPT",
    "label": "Start Reference Time Point",
    "type": "Char",
    "length": "",
    "role": "Timing",
    "core": "Perm",
    "ordinal": "39",
    "description": "Description or date/time in ISO 8601 character format of the sponsor-defined reference point referred to by CMSTRTPT. Examples: \"2003-12-15\", \"VISIT 1\".",
    "mandatory": false,
    "codelist": null,
    "origin": "CRF",
    "implementation_notes": ""
  },
  {
    "domain": "CM",
    "name": "CMENRTPT",
    "label": "End Relative to Reference Time Point",
    "type": "Char",
    "length": "",
    "role": "Timing",
    "core": "Perm",
    "ordinal": "40",
    "description": "Identifies the end of the medication as being before or after the sponsor-defined reference time point defined by variable CMENTPT. \\n Not all values of the codelist are allowable for this variable. See Section 4.4.7, Use of Relative Timing Variables.",
    "mandatory": false,
    "codelist": {
      "code": "C66728",
      "name": "Version-agnostic anchor resource for codelist C66728",
      "href": "/mdr/root/ct/sdtmct/codelists/C66728"
    },
    "origin": "CRF",
    "implementation_notes": ""
  },
  {
    "domain": "CM",
    "name": "CMENTPT",
    "label": "End Reference Time Point",
    "type": "Char",
    "length": "",
    "role": "Timing",
    "core": "Perm",
    "ordinal": "41",
    "description": "Description or date/time in ISO 8601 character format of the sponsor-defined reference point referred to by CMENRTPT. Examples: \"2003-12-25\", \"VISIT 2\".",
    "mandatory": false,
    "codelist": null,
    "origin": "CRF",
    "implementation_notes": ""
  },
  {
    "domain": "CO",
    "name": "STUDYID",
    "label": "Study Identifier",
    "type": "Char",
    "length": "",
    "role": "Identifier",
    "core": "Req",
    "ordinal": "1",
    "description": "Unique identifier for a study.",
    "mandatory": false,
    "codelist": null,
    "origin": "CRF",
    "implementation_notes": ""
  },
  {
    "domain": "CO",
    "name": "DOMAIN",
    "label": "Domain Abbreviation",
    "type": "Char",
    "length": "",
    "role": "Identifier",
    "core": "Req",
    "ordinal": "2",
    "description": "Two-character abbreviation for the domain.",
    "mandatory": false,
    "codelist": null,
    "origin": "CRF",
    "implementation_notes": ""
  },
  {
    "domain": "CO",
    "name": "RDOMAIN",
    "label": "Related Domain Abbreviation",
    "type": "Char",
    "length": "",
    "role": "Record Qualifier",
    "core": "Perm",
    "ordinal": "3",
    "description": "Two-character abbreviation for the domain of the parent record(s). Null for comments collected on a general comments or additional information CRF page.",
    "mandatory": false,
    "codelist": {
      "code": "C66734",
      "name": "Version-agnostic anchor resource for codelist C66734",
      "href": "/mdr/root/ct/sdtmct/codelists/C66734"
    },
    "origin": "CRF",
    "implementation_notes": ""
  },
  {
    "domain": "CO",
    "name": "USUBJID",
    "label": "Unique Subject Identifier",
    "type": "Char",
    "length": "",
    "role": "Identifier",
    "core": "Req",
    "ordinal": "4",
    "description": "Identifier used to uniquely identify a subject across all studies for all applications or submissions involving the product.",
    "mandatory": false,
    "codelist": null,
    "origin": "CRF",
    "implementation_notes": ""
  },
  {
    "domain": "CO",
    "name": "COSEQ",
    "label": "Sequence Number",
    "type": "Num",
    "length": "",
    "role": "Identifier",
    "core": "Req",
    "ordinal": "5",
    "description": "Sequence Number given to ensure uniqueness of subject records within a domain. May be any valid number.",
    "mandatory": false,
    "codelist": null,
    "origin": "CRF",
    "implementation_notes": ""
  },
  {
    "domain": "CO",
    "name": "IDVAR",
    "label": "Identifying Variable",
    "type": "Char",
    "length": "",
    "role": "Record Qualifier",
    "core": "Perm",
    "ordinal": "6",
    "description": "Identifying variable in the parent dataset that identifies the record(s) to which the comment applies. Examples AESEQ or CMGRPID. Used only when individual comments are related to domain records. Null for comments collected on separate CRFs.",
    "mandatory": false,
    "codelist": null,
    "origin": "CRF",
    "implementation_notes": ""
  },
  {
    "domain": "CO",
    "name": "IDVARVAL",
    "label": "Identifying Variable Value",
    "type": "Char",
    "length": "",
    "role": "Record Qualifier",
    "core": "Perm",
    "ordinal": "7",
    "description": "Value of identifying variable of the parent record(s). Used only when individual comments are related to domain records. Null for comments collected on separate CRFs.",
    "mandatory": false,
    "codelist": null,
    "origin": "CRF",
    "implementation_notes": ""
  },
  {
    "domain": "CO",
    "name": "COREF",
    "label": "Comment Reference",
    "type": "Char",
    "length": "",
    "role": "Record Qualifier",
    "core": "Perm",
    "ordinal": "8",
    "description": "Sponsor-defined reference associated with the comment. May be the CRF page number (e.g., 650), or a module name (e.g., DEMOG), or a combination of information that identifies the reference (e.g. 650-VITALS-VISIT 2).",
    "mandatory": false,
    "codelist": null,
    "origin": "CRF",
    "implementation_notes": ""
  },
  {
    "domain": "CO",
    "name": "COVAL",
    "label": "Comment",
    "type": "Char",
    "length": "",
    "role": "Topic",
    "core": "Req",
    "ordinal": "9",
    "description": "The text of the comment. Text over 200 characters can be added to additional columns COVAL1-COVALn. See Assumption 3.",
    "mandatory": false,
    "codelist": null,
    "origin": "CRF",
    "implementation_notes": ""
  },
  {
    "domain": "CO",
    "name": "COEVAL",
    "label": "Evaluator",
    "type": "Char",
    "length": "",
    "role": "Record Qualifier",
    "core": "Perm",
    "ordinal": "10",
    "description": "Role of the person who provided the evaluation. Used only for results that are subjective (e.g., assigned by a person or a group). Example: \"INVESTIGATOR\".",
    "mandatory": false,
    "codelist": {
      "code": "C78735",
      "name": "Version-agnostic anchor resource for codelist C78735",
      "href": "/mdr/root/ct/sdtmct/codelists/C78735"
    },
    "origin": "CRF",
    "implementation_notes": ""
  },
  {
    "domain": "CO",
    "name": "COEVALID",
    "label": "Evaluator Identifier",
    "type": "Char",
    "length": "",
    "role": "Record Qualifier",
    "core": "Perm",
    "ordinal": "11",
    "description": "Used to distinguish multiple evaluators with the same role recorded in --EVAL. Examples: \"RADIOLOGIST\", \"RADIOLOGIST 1\", \"RADIOLOGIST 2\".",
    "mandatory": false,
    "codelist": {
      "code": "C96777",
      "name": "Version-agnostic anchor resource for codelist C96777",
      "href": "/mdr/root/ct/sdtmct/codelists/C96777"
    },
    "origin": "CRF",
    "implementation_notes": ""
  },
  {
    "domain": "CO",
    "name": "CODTC",
    "label": "Date/Time of Comment",
    "type": "Char",
    "length": "",
    "role": "Timing",
    "core": "Perm",
    "ordinal": "12",
    "description": "Date/time of comment on dedicated comment form. Should be null if this is a child record of another domain or if comment date was not collected.",
    "mandatory": false,
    "codelist": null,
    "origin": "CRF",
    "implementation_notes": ""
  },
  {
    "domain": "CO",
    "name": "CODY",
    "label": "Study Day of Comment",
    "type": "Num",
    "length": "",
    "role": "Timing",
    "core": "Perm",
    "ordinal": "13",
    "description": "Study day of the comment, in integer days. The algorithm for calculations must be relative to the sponsor-defined RFSTDTC variable in the Demographics (DM) domain.",
    "mandatory": false,
    "codelist": null,
    "origin": "CRF",
    "implementation_notes": ""
  },
  {
    "domain": "CP",
    "name": "STUDYID",
    "label": "Study Identifier",
    "type": "Char",
    "length": "",
    "role": "Identifier",
    "core": "Req",
    "ordinal": "1",
    "description": "Unique identifier for a study.",
    "mandatory": false,
    "codelist": null,
    "origin": "CRF",
    "implementation_notes": ""
  },
  {
    "domain": "CP",
    "name": "DOMAIN",
    "label": "Domain Abbreviation",
    "type": "Char",
    "length": "",
    "role": "Identifier",
    "core": "Req",
    "ordinal": "2",
    "description": "Two-character abbreviation for the domain.",
    "mandatory": false,
    "codelist": null,
    "origin": "CRF",
    "implementation_notes": ""
  },
  {
    "domain": "CP",
    "name": "USUBJID",
    "label": "Unique Subject Identifier",
    "type": "Char",
    "length": "",
    "role": "Identifier",
    "core": "Req",
    "ordinal": "3",
    "description": "Identifier used to uniquely identify a subject across all studies for all applications or submissions involving the product.",
    "mandatory": false,
    "codelist": null,
    "origin": "CRF",
    "implementation_notes": ""
  },
  {
    "domain": "CP",
    "name": "CPSEQ",
    "label": "Sequence Number",
    "type": "Num",
    "length": "",
    "role": "Identifier",
    "core": "Req",
    "ordinal": "4",
    "description": "Sequence number to ensure uniqueness of subject records within a domain. May be any valid number.",
    "mandatory": false,
    "codelist": null,
    "origin": "CRF",
    "implementation_notes": ""
  },
  {
    "domain": "CP",
    "name": "CPGRPID",
    "label": "Group ID",
    "type": "Char",
    "length": "",
    "role": "Identifier",
    "core": "Perm",
    "ordinal": "5",
    "description": "Used to tie together a block of related records in a single domain for a subject.",
    "mandatory": false,
    "codelist": null,
    "origin": "CRF",
    "implementation_notes": ""
  },
  {
    "domain": "CP",
    "name": "CPREFID",
    "label": "Reference ID",
    "type": "Char",
    "length": "",
    "role": "Identifier",
    "core": "Perm",
    "ordinal": "6",
    "description": "Internal or external specimen identifier.",
    "mandatory": false,
    "codelist": null,
    "origin": "CRF",
    "implementation_notes": ""
  },
  {
    "domain": "CP",
    "name": "CPSPID",
    "label": "Sponsor-Defined Identifier",
    "type": "Char",
    "length": "",
    "role": "Identifier",
    "core": "Perm",
    "ordinal": "7",
    "description": "Sponsor-defined reference number. May be preprinted on the CRF as an explicit line identifier or defined in the sponsor's operational database. Example: Line number on the lab page.",
    "mandatory": false,
    "codelist": null,
    "origin": "CRF",
    "implementation_notes": ""
  },
  {
    "domain": "CP",
    "name": "CPLNKID",
    "label": "Link ID",
    "type": "Char",
    "length": "",
    "role": "Identifier",
    "core": "Perm",
    "ordinal": "8",
    "description": "Identifier used to link related records across domains. This may be a one-to-one or a one-to-many relationship.",
    "mandatory": false,
    "codelist": null,
    "origin": "CRF",
    "implementation_notes": ""
  },
  {
    "domain": "CP",
    "name": "CPLNKGRP",
    "label": "Link Group ID",
    "type": "Char",
    "length": "",
    "role": "Identifier",
    "core": "Perm",
    "ordinal": "9",
    "description": "Identifier used to link related records across domains. This will usually be a many-to-one relationship.",
    "mandatory": false,
    "codelist": null,
    "origin": "CRF",
    "implementation_notes": ""
  },
  {
    "domain": "CP",
    "name": "CPTESTCD",
    "label": "Test or Examination Short Name",
    "type": "Char",
    "length": "",
    "role": "Topic",
    "core": "Req",
    "ordinal": "10",
    "description": "Short name of the measurement, test, or examination described in CPTEST. It can be used as a column name when converting a dataset from a vertical to a horizontal format. The value in CPTESTCD cannot be longer than 8 characters, nor can it start with a number (e.g., \"1TEST\" is not valid). CPTESTCD cannot contain characters other than letters, numbers, or underscores. Examples: \"MONO\", \"MNS\".",
    "mandatory": false,
    "codelist": {
      "code": "C181173",
      "name": "Version-agnostic anchor resource for codelist C181173",
      "href": "/mdr/root/ct/sdtmct/codelists/C181173"
    },
    "origin": "CRF",
    "implementation_notes": ""
  },
  {
    "domain": "CP",
    "name": "CPTEST",
    "label": "Name of Measurement, Test or Examination",
    "type": "Char",
    "length": "",
    "role": "Synonym Qualifier",
    "core": "Req",
    "ordinal": "11",
    "description": "Long name for CPTESTCD. For cell phenotyping, the name (often abbreviated) of the cell population, as it is generally accepted by the scientific community, is populated (rather than a colloquial designation based on a primary marker, e.g., TLym Help rather than CD4). When the test is for a sublineage which can only be identified by specifying additional markers (i.e., has not been given a name) or which is further restricted to a subpopulation based on a particular cell state (e.g., activated, proliferating, apoptotic), the Sublineage Marker String (CPSBMRKS), Cell State (CPCELSTA), and Cell State Marker String (CPCSMRKS) variables are additionally populated and the value in CPTEST is suffixed with \"Sub\" to denote that it is a subset of the population identified in CPTEST (e.g., Monocytes Sub). \\n The value in CPTEST cannot be longer than 40 characters.",
    "mandatory": false,
    "codelist": {
      "code": "C181174",
      "name": "Version-agnostic anchor resource for codelist C181174",
      "href": "/mdr/root/ct/sdtmct/codelists/C181174"
    },
    "origin": "CRF",
    "implementation_notes": ""
  },
  {
    "domain": "CP",
    "name": "CPSBMRKS",
    "label": "Sublineage Marker String",
    "type": "Char",
    "length": "",
    "role": "Variable Qualifier",
    "core": "Perm",
    "ordinal": "12",
    "description": "Used to further subset the cell population identified in CPTEST based on the use of additional marker(s) that define a sublineage. The value in CPSBMRKS is used in combination with values in CPTEST and CPCELSTA to fully describe the cell population being measured. As such, it is an essential component of the full test name. \\n For example, three unnamed sublineages of monocytes have been identified as: CCR2+CD16-, CCR2-CD16+, and CCR2+CD16+. Whereas the entire monocyte cell population can be defined as CD14+ cells, the additional CCR2 and CD16 markers are used to differentiate one sublineage from another. As none of these sublineages have been given names, they are only known by the CCR2 and CD16 marker combinations. By associating the CPTEST value of \"Monocytes Sub\" with, for example, a value of \"CCR2+CD16-\" in CPSBMRKS, the full test is defined to be the CCR2+CD16- monocyte subpopulation.",
    "mandatory": false,
    "codelist": null,
    "origin": "CRF",
    "implementation_notes": ""
  },
  {
    "domain": "CP",
    "name": "CPCELSTA",
    "label": "Cell State",
    "type": "Char",
    "length": "",
    "role": "Variable Qualifier",
    "core": "Perm",
    "ordinal": "13",
    "description": "A textual description of a subset of the cell population identified in CPTEST based on a particular functional and/or biological state (e.g., \"ACTIVATED\", \"PROLIFERATING\", \"SENESCENT\"). When populated, the values in CPCELSTA and CPSMRKS, in combination with the values in CPTEST and CPSBMRKS, fully describe the cell population being measured.",
    "mandatory": false,
    "codelist": {
      "code": "C181172",
      "name": "Version-agnostic anchor resource for codelist C181172",
      "href": "/mdr/root/ct/sdtmct/codelists/C181172"
    },
    "origin": "CRF",
    "implementation_notes": ""
  },
  {
    "domain": "CP",
    "name": "CPCSMRKS",
    "label": "Cell State Marker String",
    "type": "Char",
    "length": "",
    "role": "Variable Qualifier",
    "core": "Perm",
    "ordinal": "14",
    "description": "Identifies the marker(s) or indicator(s) used to define the cell state (i.e., the value in CPCELSTA). \\n For example, when Ki67 expression is used to determine that a cell population is in a proliferating state (i.e., CPCELSTA value=\"PROLIFERATING\"), the value \"Ki67+\" in CPCSMRKS indicates that positive expression of Ki67 was used to define the population as proliferating. Similarly, a value of \"Ki67-\" in CPCSMRKS would indicate that lack of expression of Ki67 defined the \"NON-PROLIFERATING\" cell state in CPCELSTA. The CPCSMRKS value is useful for quickly determining which marker(s) were used to classify (i.e., operationally define) a cell population based on a functional/biological state.",
    "mandatory": false,
    "codelist": null,
    "origin": "CRF",
    "implementation_notes": ""
  },
  {
    "domain": "CP",
    "name": "CPTSTCND",
    "label": "Test Condition",
    "type": "Char",
    "length": "",
    "role": "Variable Qualifier",
    "core": "Perm",
    "ordinal": "15",
    "description": "Identifies any planned condition imposed by the assay system on the specimen at the time the test is performed. --TSTCND is generally used to distinguish between two or more records where the same assay is performed under varying (as opposed to fixed) conditions, usually for the purpose of making a comparison. For example, when the same assay (identified in --TEST) is performed under stimulated and non-stimulated conditions, the --TSTCND variable is used distinguish between the records.",
    "mandatory": false,
    "codelist": {
      "code": "C181175",
      "name": "Version-agnostic anchor resource for codelist C181175",
      "href": "/mdr/root/ct/sdtmct/codelists/C181175"
    },
    "origin": "CRF",
    "implementation_notes": ""
  },
  {
    "domain": "CP",
    "name": "CPCNDAGT",
    "label": "Test Condition Agent",
    "type": "Char",
    "length": "",
    "role": "Record Qualifier",
    "core": "Perm",
    "ordinal": "16",
    "description": "The textual description of the agent, if applicable, used to impose the condition identified in CPTSTCND. For example, records might be produced for the same assay run under stimulating (CPTSTCND value = \"STIMULATED\") conditions produced by different stimulating agents (e.g., phorbol myristate acetate, concanavalin A, PHA-P, TNF-alpha, Ionomycin, candida antigen).",
    "mandatory": false,
    "codelist": null,
    "origin": "CRF",
    "implementation_notes": ""
  },
  {
    "domain": "CP",
    "name": "CPBDAGNT",
    "label": "Binding Agent",
    "type": "Char",
    "length": "",
    "role": "Record Qualifier",
    "core": "Perm",
    "ordinal": "17",
    "description": "The textual description of the agent that is binding to the entity in the CPTEST variable. The CPBDAGNT variable is used to indicate that there is a binding relationship between the entities in the CPTEST and CPBDAGNT variables, regardless of direction. \\n The binding agent may be, but is not limited to, a test article; a portion of a test article; a substance related to a test article; an endogenous molecule; an allergen; an infectious agent; or a reagent (e.g., primary antibody) that confers the binding specificity for the measurement defined in CPTEST when it is needed to uniquely identify the test.",
    "mandatory": false,
    "codelist": null,
    "origin": "CRF",
    "implementation_notes": ""
  },
  {
    "domain": "CP",
    "name": "CPABCLID",
    "label": "Antibody Clone Identifier",
    "type": "Char",
    "length": "",
    "role": "Record Qualifier",
    "core": "Perm",
    "ordinal": "18",
    "description": "Identifies the antibody clone (e.g., supplier-provided catalog name) used to confer specificity for the binding agent specified in CPBDAGNT.",
    "mandatory": false,
    "codelist": null,
    "origin": "CRF",
    "implementation_notes": ""
  },
  {
    "domain": "CP",
    "name": "CPMRKSTR",
    "label": "Marker String",
    "type": "Char",
    "length": "",
    "role": "Record Qualifier",
    "core": "Exp",
    "ordinal": "19",
    "description": "The text string identifying the full set of markers/indicators used by the laboratory to operationally define the complete test based on the combination of CPTEST, CPSBMRKS, and CPCELSTA. Because laboratories often use different markers/indicators to identify a cell population, the relationship between a named cell population in CPTEST (as combined with CPSBMRKS and CPCELSTA values) and the set of markers used to identify that population is many-to-one. To ensure nuances important for accurately interpreting the data are accounted for and which arise from the use of different sets of markers, it is necessary to operationally define the test in terms of the complete set of markers/indicators used to perform that test.",
    "mandatory": false,
    "codelist": null,
    "origin": "CRF",
    "implementation_notes": ""
  },
  {
    "domain": "CP",
    "name": "CPGATE",
    "label": "Gate",
    "type": "Char",
    "length": "",
    "role": "Record Qualifier",
    "core": "Perm",
    "ordinal": "20",
    "description": "The sponsor-defined name assigned to a gate. Gates are electronic (i.e., a device setting or software-defined) boundaries set by a user to virtually parse a specimen into discrete populations based on a set of defined characteristics (e.g., presence, absence, or intensity of expression of various markers; physical size; internal complexity or granularity). Gates are used to constrain data collection or analysis to a specific cell population or region of interest within the specimen.",
    "mandatory": false,
    "codelist": null,
    "origin": "CRF",
    "implementation_notes": ""
  },
  {
    "domain": "CP",
    "name": "CPGATDEF",
    "label": "Gate Definition",
    "type": "Char",
    "length": "",
    "role": "Record Qualifier",
    "core": "Perm",
    "ordinal": "21",
    "description": "The text string identifying the set of parameters and the order in which they are applied to define the gating strategy. In practice, a series of 2-dimensional sub-gates based on different cell characteristics (i.e., markers/indicators/physical properties) are most often combined until the cell population of interest is sufficiently resolved (i.e., electronically isolated) from other cell populations contained within the specimen. \\n For complex analyses, differences in gating strategies can produce subtle differences in results obtained for a test. To ensure nuances important for accurately interpreting the data are accounted for and which arise from the use of different gating strategies, it is often necessary to qualify the test in terms of the gating strategy. For some purposes, however, and at the discretion of the sponsor, only the ultimate or penultimate gate is identified. When specifying the gating strategy in CPGATDEF, each sub-gate should be listed in the order it was applied and separated from the next sub-gate using the pipe/vertical line (\"|\") character.",
    "mandatory": false,
    "codelist": null,
    "origin": "CRF",
    "implementation_notes": ""
  },
  {
    "domain": "CP",
    "name": "CPSPTSTD",
    "label": "Sponsor Test Description",
    "type": "Char",
    "length": "",
    "role": "Record Qualifier",
    "core": "Perm",
    "ordinal": "22",
    "description": "Sponsor's description of a test. The variable is intended to contain highly structured test description metadata used by a sponsor to unambiguously define (label) a test. Such values generally reside in a sponsor/laboratory test metadata repository. CPSPTSTD is not intended for unstructured (spontaneous) free text. \\n An example of appropriate usage is when it is necessary to include identifying information for a target cell population on which a test is conducted when the target population is not part of the test name, e.g., tests for quantitative expression of a particular marker on a specific cell population.",
    "mandatory": false,
    "codelist": null,
    "origin": "CRF",
    "implementation_notes": ""
  },
  {
    "domain": "CP",
    "name": "CPCAT",
    "label": "Category",
    "type": "Char",
    "length": "",
    "role": "Grouping Qualifier",
    "core": "Perm",
    "ordinal": "23",
    "description": "Used to define a category of topic-variable values across subjects. Examples: \"IMMUNOPHENOTYPING\", \"CELL FUNCTION\", \"TARGET ENGAGEMENT\".",
    "mandatory": false,
    "codelist": {
      "code": "C181171",
      "name": "Version-agnostic anchor resource for codelist C181171",
      "href": "/mdr/root/ct/sdtmct/codelists/C181171"
    },
    "origin": "CRF",
    "implementation_notes": ""
  },
  {
    "domain": "CP",
    "name": "CPSCAT",
    "label": "Subcategory",
    "type": "Char",
    "length": "",
    "role": "Grouping Qualifier",
    "core": "Perm",
    "ordinal": "24",
    "description": "A further categorization of CPCAT.",
    "mandatory": false,
    "codelist": null,
    "origin": "CRF",
    "implementation_notes": ""
  },
  {
    "domain": "CP",
    "name": "CPTSTPNL",
    "label": "Test Panel",
    "type": "Char",
    "length": "",
    "role": "Grouping Qualifier",
    "core": "Perm",
    "ordinal": "25",
    "description": "Sponsor-defined textual description used to group tests run together as part of a test panel. Can be used with --GRPID to ensure that relationships between associated tests are accurately identified.",
    "mandatory": false,
    "codelist": null,
    "origin": "CRF",
    "implementation_notes": ""
  },
  {
    "domain": "CP",
    "name": "CPORRES",
    "label": "Result or Finding in Original Units",
    "type": "Char",
    "length": "",
    "role": "Result Qualifier",
    "core": "Exp",
    "ordinal": "26",
    "description": "Result of the measurement or finding as originally received or collected.",
    "mandatory": false,
    "codelist": null,
    "origin": "CRF",
    "implementation_notes": ""
  },
  {
    "domain": "CP",
    "name": "CPORRESU",
    "label": "Original Units",
    "type": "Char",
    "length": "",
    "role": "Variable Qualifier",
    "core": "Perm",
    "ordinal": "27",
    "description": "Original units in which the data were collected. The unit for CPORRES. Examples: \"10^6/L\", \"%\", \"MESF\".",
    "mandatory": false,
    "codelist": {
      "code": "C71620",
      "name": "Version-agnostic anchor resource for codelist C71620",
      "href": "/mdr/root/ct/sdtmct/codelists/C71620"
    },
    "origin": "CRF",
    "implementation_notes": ""
  },
  {
    "domain": "CP",
    "name": "CPRESSCL",
    "label": "Result Scale",
    "type": "Char",
    "length": "",
    "role": "Record Qualifier",
    "core": "Perm",
    "ordinal": "28",
    "description": "Classifies the scale of the original result value with respect to whether the result is quantitative, ordinal, nominal, or narrative.",
    "mandatory": false,
    "codelist": {
      "code": "C177910",
      "name": "Version-agnostic anchor resource for codelist C177910",
      "href": "/mdr/root/ct/sdtmct/codelists/C177910"
    },
    "origin": "CRF",
    "implementation_notes": ""
  },
  {
    "domain": "CP",
    "name": "CPRESTYP",
    "label": "Result Type",
    "type": "Char",
    "length": "",
    "role": "Record Qualifier",
    "core": "Perm",
    "ordinal": "29",
    "description": "Classifies the kind of result (i.e., property type) originally reported for the test. Examples: \"NUMBER CONCENTRATION\", \"NUMBER FRACTION\", \"RATIO\".",
    "mandatory": false,
    "codelist": {
      "code": "C179588",
      "name": "Version-agnostic anchor resource for codelist C179588",
      "href": "/mdr/root/ct/sdtmct/codelists/C179588"
    },
    "origin": "CRF",
    "implementation_notes": ""
  },
  {
    "domain": "CP",
    "name": "CPCOLSRT",
    "label": "Collected Summary Result Type",
    "type": "Char",
    "length": "",
    "role": "Record Qualifier",
    "core": "Perm",
    "ordinal": "30",
    "description": "Used to indicate the type of collected summary result. This includes source summary results collected on a CRF or provided by an external vendor (e.g., central lab). If the summary result is derived using individual source data records, this summary result should be represented in ADaM. If a sponsor has both a collected summary result and a derived summary result, the collected summary result should be represented in SDTM and the derived summary result should be represented in ADaM.",
    "mandatory": false,
    "codelist": {
      "code": "C177908",
      "name": "Version-agnostic anchor resource for codelist C177908",
      "href": "/mdr/root/ct/sdtmct/codelists/C177908"
    },
    "origin": "CRF",
    "implementation_notes": ""
  },
  {
    "domain": "CP",
    "name": "CPORNRLO",
    "label": "Reference Range Lower Limit in Orig Unit",
    "type": "Char",
    "length": "",
    "role": "Variable Qualifier",
    "core": "Perm",
    "ordinal": "31",
    "description": "Lower end of reference range for continuous measurement in original units. Should be populated only for continuous results.",
    "mandatory": false,
    "codelist": null,
    "origin": "CRF",
    "implementation_notes": ""
  },
  {
    "domain": "CP",
    "name": "CPORNRHI",
    "label": "Reference Range Upper Limit in Orig Unit",
    "type": "Char",
    "length": "",
    "role": "Variable Qualifier",
    "core": "Perm",
    "ordinal": "32",
    "description": "Upper end of reference range for continuous measurement in original units. Should be populated only for continuous results.",
    "mandatory": false,
    "codelist": null,
    "origin": "CRF",
    "implementation_notes": ""
  },
  {
    "domain": "CP",
    "name": "CPSTRESC",
    "label": "Result or Finding in Standard Format",
    "type": "Char",
    "length": "",
    "role": "Result Qualifier",
    "core": "Exp",
    "ordinal": "33",
    "description": "Contains the result value for all findings, copied or derived from CPORRES in a standard format or in standard units. CPSTRESC should store all results or findings in character format; if results are numeric, they should also be stored in numeric format in CPSTRESN.",
    "mandatory": false,
    "codelist": null,
    "origin": "CRF",
    "implementation_notes": ""
  },
  {
    "domain": "CP",
    "name": "CPSTRESN",
    "label": "Numeric Result/Finding in Standard Units",
    "type": "Num",
    "length": "",
    "role": "Result Qualifier",
    "core": "Perm",
    "ordinal": "34",
    "description": "Used for continuous or numeric results or findings in standard format; copied in numeric format from CPSTRESC. CPSTRESN should store all numeric test results or findings.",
    "mandatory": false,
    "codelist": null,
    "origin": "CRF",
    "implementation_notes": ""
  },
  {
    "domain": "CP",
    "name": "CPSTRESU",
    "label": "Standard Units",
    "type": "Char",
    "length": "",
    "role": "Variable Qualifier",
    "core": "Perm",
    "ordinal": "35",
    "description": "Standardized unit used for CPSTRESC or CPSTRESN.",
    "mandatory": false,
    "codelist": {
      "code": "C71620",
      "name": "Version-agnostic anchor resource for codelist C71620",
      "href": "/mdr/root/ct/sdtmct/codelists/C71620"
    },
    "origin": "CRF",
    "implementation_notes": ""
  },
  {
    "domain": "CP",
    "name": "CPSTNRLO",
    "label": "Reference Range Lower Limit-Std Units",
    "type": "Num",
    "length": "",
    "role": "Variable Qualifier",
    "core": "Perm",
    "ordinal": "36",
    "description": "Lower end of reference range for continuous measurements for CPSTRESC/CPSTRESN in standardized units. Should be populated only for continuous results.",
    "mandatory": false,
    "codelist": null,
    "origin": "CRF",
    "implementation_notes": ""
  },
  {
    "domain": "CP",
    "name": "CPSTNRHI",
    "label": "Reference Range Upper Limit-Std Units",
    "type": "Num",
    "length": "",
    "role": "Variable Qualifier",
    "core": "Perm",
    "ordinal": "37",
    "description": "Upper end of reference range for continuous measurements in standardized units. Should be populated only for continuous results.",
    "mandatory": false,
    "codelist": null,
    "origin": "CRF",
    "implementation_notes": ""
  },
  {
    "domain": "CP",
    "name": "CPNRIND",
    "label": "Reference Range Indicator",
    "type": "Char",
    "length": "",
    "role": "Variable Qualifier",
    "core": "Perm",
    "ordinal": "38",
    "description": "Indicates where the value falls with respect to reference range defined by CPORNRLO and CPORNRHI, CPSTNRLO and CPSTNRHI, or by CPSTNRC. Examples: \"NORMAL\", \"ABNORMAL\", \"HIGH\", \"LOW\". Sponsors should specify in the study metadata (Comments column in the Define-XML document) whether CPNRIND refers to the original or standard reference ranges and results. CPNRIND should not be used to indicate clinical significance.",
    "mandatory": false,
    "codelist": {
      "code": "C78736",
      "name": "Version-agnostic anchor resource for codelist C78736",
      "href": "/mdr/root/ct/sdtmct/codelists/C78736"
    },
    "origin": "CRF",
    "implementation_notes": ""
  },
  {
    "domain": "CP",
    "name": "CPSTAT",
    "label": "Completion Status",
    "type": "Char",
    "length": "",
    "role": "Record Qualifier",
    "core": "Perm",
    "ordinal": "39",
    "description": "Used to indicate that the test was not performed or that it was attempted but did not generate a result. Should be null if a result exists in CPORRES.",
    "mandatory": false,
    "codelist": {
      "code": "C66789",
      "name": "Version-agnostic anchor resource for codelist C66789",
      "href": "/mdr/root/ct/sdtmct/codelists/C66789"
    },
    "origin": "CRF",
    "implementation_notes": ""
  },
  {
    "domain": "CP",
    "name": "CPREASND",
    "label": "Reason Not Done",
    "type": "Char",
    "length": "",
    "role": "Record Qualifier",
    "core": "Perm",
    "ordinal": "40",
    "description": "Describes why a test was not performed, e.g., \"BROKEN EQUIPMENT\", \"SUBJECT REFUSED\", \"SPECIMEN LOST\". Used in conjunction with CPSTAT when value is \"NOT DONE\".",
    "mandatory": false,
    "codelist": null,
    "origin": "CRF",
    "implementation_notes": ""
  },
  {
    "domain": "CP",
    "name": "CPNAM",
    "label": "Vendor Name",
    "type": "Char",
    "length": "",
    "role": "Record Qualifier",
    "core": "Perm",
    "ordinal": "41",
    "description": "The name or identifier of the laboratory that performed the test.",
    "mandatory": false,
    "codelist": null,
    "origin": "CRF",
    "implementation_notes": ""
  },
  {
    "domain": "CP",
    "name": "CPLOINC",
    "label": "LOINC Code",
    "type": "Char",
    "length": "",
    "role": "Synonym Qualifier",
    "core": "Perm",
    "ordinal": "42",
    "description": "Code for the test from the LOINC code system. The sponsor is expected to provide the dictionary name and version used to map the terms utilizing the Define-XML external codelist attributes.",
    "mandatory": false,
    "codelist": null,
    "origin": "CRF",
    "implementation_notes": ""
  },
  {
    "domain": "CP",
    "name": "CPSPEC",
    "label": "Specimen Type",
    "type": "Char",
    "length": "",
    "role": "Record Qualifier",
    "core": "Perm",
    "ordinal": "43",
    "description": "Defines the type of specimen used for a measurement. Examples: \"BLOOD\", \"BONE MARROW\".",
    "mandatory": false,
    "codelist": {
      "code": "C78734",
      "name": "Version-agnostic anchor resource for codelist C78734",
      "href": "/mdr/root/ct/sdtmct/codelists/C78734"
    },
    "origin": "CRF",
    "implementation_notes": ""
  },
  {
    "domain": "CP",
    "name": "CPSPCCND",
    "label": "Specimen Condition",
    "type": "Char",
    "length": "",
    "role": "Record Qualifier",
    "core": "Perm",
    "ordinal": "44",
    "description": "The physical state or quality of a specimen for an assessment. Example: \"CLOTTED\".",
    "mandatory": false,
    "codelist": {
      "code": "C78733",
      "name": "Version-agnostic anchor resource for codelist C78733",
      "href": "/mdr/root/ct/sdtmct/codelists/C78733"
    },
    "origin": "CRF",
    "implementation_notes": ""
  },
  {
    "domain": "CP",
    "name": "CPMETHOD",
    "label": "Method of Test or Examination",
    "type": "Char",
    "length": "",
    "role": "Record Qualifier",
    "core": "Perm",
    "ordinal": "45",
    "description": "Method of the test or examination. Example: \"FLOW CYTOMETRY\".",
    "mandatory": false,
    "codelist": {
      "code": "C85492",
      "name": "Version-agnostic anchor resource for codelist C85492",
      "href": "/mdr/root/ct/sdtmct/codelists/C85492"
    },
    "origin": "CRF",
    "implementation_notes": ""
  },
  {
    "domain": "CP",
    "name": "CPANMETH",
    "label": "Analysis Method",
    "type": "Char",
    "length": "",
    "role": "Record Qualifier",
    "core": "Perm",
    "ordinal": "46",
    "description": "Analysis method applied to obtain a summarized result. Analysis method describes the method of secondary processing applied to a complex observation result.",
    "mandatory": false,
    "codelist": null,
    "origin": "CRF",
    "implementation_notes": ""
  },
  {
    "domain": "CP",
    "name": "CPLOBXFL",
    "label": "Last Observation Before Exposure Flag",
    "type": "Char",
    "length": "",
    "role": "Record Qualifier",
    "core": "Perm",
    "ordinal": "47",
    "description": "Operationally-derived indicator used to identify the last non-missing value prior to RFXSTDTC. The value should be \"Y\" or null.",
    "mandatory": false,
    "codelist": {
      "code": "C66742",
      "name": "Version-agnostic anchor resource for codelist C66742",
      "href": "/mdr/root/ct/sdtmct/codelists/C66742"
    },
    "origin": "CRF",
    "implementation_notes": ""
  },
  {
    "domain": "CP",
    "name": "CPBLFL",
    "label": "Baseline Flag",
    "type": "Char",
    "length": "",
    "role": "Record Qualifier",
    "core": "Perm",
    "ordinal": "48",
    "description": "Indicator used to identify a baseline value. The value should be \"Y\" or null.",
    "mandatory": false,
    "codelist": {
      "code": "C66742",
      "name": "Version-agnostic anchor resource for codelist C66742",
      "href": "/mdr/root/ct/sdtmct/codelists/C66742"
    },
    "origin": "CRF",
    "implementation_notes": ""
  },
  {
    "domain": "CP",
    "name": "CPDRVFL",
    "label": "Derived Flag",
    "type": "Char",
    "length": "",
    "role": "Record Qualifier",
    "core": "Perm",
    "ordinal": "49",
    "description": "Used to indicate a derived record. The value should be \"Y\" or null. Records that represent the average of other records, or do not come from the CRF, or are not as originally received or collected are examples of records that might be derived for the submission datasets. If CPDRVFL = \"Y\", then CPORRES may be null, with CPSTRESC and (if numeric) CPSTRESN having the derived value.",
    "mandatory": false,
    "codelist": {
      "code": "C66742",
      "name": "Version-agnostic anchor resource for codelist C66742",
      "href": "/mdr/root/ct/sdtmct/codelists/C66742"
    },
    "origin": "CRF",
    "implementation_notes": ""
  },
  {
    "domain": "CP",
    "name": "CPCLSIG",
    "label": "Clinically Significant, Collected",
    "type": "Char",
    "length": "",
    "role": "Record Qualifier",
    "core": "Perm",
    "ordinal": "50",
    "description": "Used to indicate whether a collected observation is clinically significant based on judgement.",
    "mandatory": false,
    "codelist": {
      "code": "C66742",
      "name": "Version-agnostic anchor resource for codelist C66742",
      "href": "/mdr/root/ct/sdtmct/codelists/C66742"
    },
    "origin": "CRF",
    "implementation_notes": ""
  },
  {
    "domain": "CP",
    "name": "VISITNUM",
    "label": "Visit Number",
    "type": "Num",
    "length": "",
    "role": "Timing",
    "core": "Perm",
    "ordinal": "51",
    "description": "Clinical encounter number. Numeric version of VISIT, used for sorting.",
    "mandatory": false,
    "codelist": null,
    "origin": "CRF",
    "implementation_notes": ""
  },
  {
    "domain": "CP",
    "name": "VISIT",
    "label": "Visit Name",
    "type": "Char",
    "length": "",
    "role": "Timing",
    "core": "Perm",
    "ordinal": "52",
    "description": "Protocol-defined description of clinical encounter. May be used in addition to VISITNUM and/or VISITDY.",
    "mandatory": false,
    "codelist": null,
    "origin": "CRF",
    "implementation_notes": ""
  },
  {
    "domain": "CP",
    "name": "VISITDY",
    "label": "Planned Study Day of Visit",
    "type": "Num",
    "length": "",
    "role": "Timing",
    "core": "Perm",
    "ordinal": "53",
    "description": "Planned study day of the visit based upon RFSTDTC in Demographics. Should be an integer.",
    "mandatory": false,
    "codelist": null,
    "origin": "CRF",
    "implementation_notes": ""
  },
  {
    "domain": "CP",
    "name": "TAETORD",
    "label": "Planned Order of Element within Arm",
    "type": "Num",
    "length": "",
    "role": "Timing",
    "core": "Perm",
    "ordinal": "54",
    "description": "Number that gives the planned order of the element within the arm.",
    "mandatory": false,
    "codelist": null,
    "origin": "CRF",
    "implementation_notes": ""
  },
  {
    "domain": "CP",
    "name": "EPOCH",
    "label": "Epoch",
    "type": "Char",
    "length": "",
    "role": "Timing",
    "core": "Perm",
    "ordinal": "55",
    "description": "Epoch associated with the start date/time of the observation, or the date/time of collection if start date/time is not collected.",
    "mandatory": false,
    "codelist": {
      "code": "C99079",
      "name": "Version-agnostic anchor resource for codelist C99079",
      "href": "/mdr/root/ct/sdtmct/codelists/C99079"
    },
    "origin": "CRF",
    "implementation_notes": ""
  },
  {
    "domain": "CP",
    "name": "CPDTC",
    "label": "Date/Time of Collection",
    "type": "Char",
    "length": "",
    "role": "Timing",
    "core": "Exp",
    "ordinal": "56",
    "description": "Date/time of specimen collection represented in ISO 8601 character format.",
    "mandatory": false,
    "codelist": null,
    "origin": "CRF",
    "implementation_notes": ""
  },
  {
    "domain": "CP",
    "name": "CPDY",
    "label": "Study Day of Visit/Collection/Exam",
    "type": "Num",
    "length": "",
    "role": "Timing",
    "core": "Perm",
    "ordinal": "57",
    "description": "Study day of specimen collection, measured in integer days. Algorithm for calculations must be relative to the sponsor-defined RFSTDTC value in Demographics.",
    "mandatory": false,
    "codelist": null,
    "origin": "CRF",
    "implementation_notes": ""
  },
  {
    "domain": "CP",
    "name": "CPTPT",
    "label": "Planned Time Point Name",
    "type": "Char",
    "length": "",
    "role": "Timing",
    "core": "Perm",
    "ordinal": "58",
    "description": "Text description of time when a specimen is to be taken, as defined in the protocol. This may be represented as an elapsed time relative to a fixed reference point (i.e., to the value in CPTPTREF). Example: \"1 hour post\".",
    "mandatory": false,
    "codelist": null,
    "origin": "CRF",
    "implementation_notes": ""
  },
  {
    "domain": "CP",
    "name": "CPTPTNUM",
    "label": "Planned Time Point Number",
    "type": "Num",
    "length": "",
    "role": "Timing",
    "core": "Perm",
    "ordinal": "59",
    "description": "Numerical version of CPTPT to aid in sorting. When CPTPT is represented as an elapsed time relative to a fixed reference point (i.e., to the value in CPTPTREF), the values in CPTPTNUM should be assigned in ascending order relative to the value in CPTPTREF. For example, records for time points where CPTPT = \"5 minutes post\", 1 hour post\", and \"4 hours post\" could be represented in CPTPTNUM as \"1\", \"2\", and \"3\", which maintains the order between CPTPT and CPTPTNUM with respect to the fixed time point reference in CPTPTREF.",
    "mandatory": false,
    "codelist": null,
    "origin": "CRF",
    "implementation_notes": ""
  },
  {
    "domain": "CP",
    "name": "CPELTM",
    "label": "Planned Elapsed Time from Time Point Ref",
    "type": "Char",
    "length": "",
    "role": "Timing",
    "core": "Perm",
    "ordinal": "60",
    "description": "Planned elapsed time relative to the planned fixed reference value in CPTPTREF, represented in ISO 8601 duration format. Examples: \"-PT15M\" to represent 15 minutes prior to the reference time point indicated by CPTPTREF, \"T8H\" to represent 8 hours after the reference time point represented by CPTPTREF.",
    "mandatory": false,
    "codelist": null,
    "origin": "CRF",
    "implementation_notes": ""
  },
  {
    "domain": "CP",
    "name": "CPTPTREF",
    "label": "Time Point Reference",
    "type": "Char",
    "length": "",
    "role": "Timing",
    "core": "Perm",
    "ordinal": "61",
    "description": "Descriptive name of the fixed reference point referred to by CPTPT, CPTPTNUM, and CPELTM. Examples: \"PREVIOUS DOSE\", \"PREVIOUS MEAL\".",
    "mandatory": false,
    "codelist": null,
    "origin": "CRF",
    "implementation_notes": ""
  },
  {
    "domain": "CP",
    "name": "CPRFTDTC",
    "label": "Date/Time of Reference Time Point",
    "type": "Char",
    "length": "",
    "role": "Timing",
    "core": "Perm",
    "ordinal": "62",
    "description": "Date/time for a fixed reference time point defined by CPTPTREF.",
    "mandatory": false,
    "codelist": null,
    "origin": "CRF",
    "implementation_notes": ""
  },
  {
    "domain": "CV",
    "name": "STUDYID",
    "label": "Study Identifier",
    "type": "Char",
    "length": "",
    "role": "Identifier",
    "core": "Req",
    "ordinal": "1",
    "description": "Unique identifier for a study.",
    "mandatory": false,
    "codelist": null,
    "origin": "CRF",
    "implementation_notes": ""
  },
  {
    "domain": "CV",
    "name": "DOMAIN",
    "label": "Domain Abbreviation",
    "type": "Char",
    "length": "",
    "role": "Identifier",
    "core": "Req",
    "ordinal": "2",
    "description": "Two-character abbreviation for the domain.",
    "mandatory": false,
    "codelist": null,
    "origin": "CRF",
    "implementation_notes": ""
  },
  {
    "domain": "CV",
    "name": "USUBJID",
    "label": "Unique Subject Identifier",
    "type": "Char",
    "length": "",
    "role": "Identifier",
    "core": "Req",
    "ordinal": "3",
    "description": "Identifier used to uniquely identify a subject across all studies for all applications or submissions involving the product.",
    "mandatory": false,
    "codelist": null,
    "origin": "CRF",
    "implementation_notes": ""
  },
  {
    "domain": "CV",
    "name": "CVSEQ",
    "label": "Sequence Number",
    "type": "Num",
    "length": "",
    "role": "Identifier",
    "core": "Req",
    "ordinal": "4",
    "description": "Sequence number to ensure uniqueness of records within a dataset for a subject. May be any valid number (including decimals) and does not have to start at 1.",
    "mandatory": false,
    "codelist": null,
    "origin": "CRF",
    "implementation_notes": ""
  },
  {
    "domain": "CV",
    "name": "CVGRPID",
    "label": "Group ID",
    "type": "Char",
    "length": "",
    "role": "Identifier",
    "core": "Perm",
    "ordinal": "5",
    "description": "Optional group identifier, used to link together a block of related records within a subject in a domain.",
    "mandatory": false,
    "codelist": null,
    "origin": "CRF",
    "implementation_notes": ""
  },
  {
    "domain": "CV",
    "name": "CVREFID",
    "label": "Reference ID",
    "type": "Char",
    "length": "",
    "role": "Identifier",
    "core": "Perm",
    "ordinal": "6",
    "description": "Optional internal or external identifier.",
    "mandatory": false,
    "codelist": null,
    "origin": "CRF",
    "implementation_notes": ""
  },
  {
    "domain": "CV",
    "name": "CVSPID",
    "label": "Sponsor-Defined Identifier",
    "type": "Char",
    "length": "",
    "role": "Identifier",
    "core": "Perm",
    "ordinal": "7",
    "description": "Sponsor-defined identifier. Example: a preprinted line identifier on a CRF.",
    "mandatory": false,
    "codelist": null,
    "origin": "CRF",
    "implementation_notes": ""
  },
  {
    "domain": "CV",
    "name": "CVLNKID",
    "label": "Link ID",
    "type": "Char",
    "length": "",
    "role": "Identifier",
    "core": "Perm",
    "ordinal": "8",
    "description": "Identifier used to link related records across domains. This may be a one-to-one or a one-to-many relationship.",
    "mandatory": false,
    "codelist": null,
    "origin": "CRF",
    "implementation_notes": ""
  },
  {
    "domain": "CV",
    "name": "CVLNKGRP",
    "label": "Link Group",
    "type": "Char",
    "length": "",
    "role": "Identifier",
    "core": "Perm",
    "ordinal": "9",
    "description": "Identifier used to link related records across domains. This will usually be a many-to-one relationship.",
    "mandatory": false,
    "codelist": null,
    "origin": "CRF",
    "implementation_notes": ""
  },
  {
    "domain": "CV",
    "name": "CVTESTCD",
    "label": "Short Name of Cardiovascular Test",
    "type": "Char",
    "length": "",
    "role": "Topic",
    "core": "Req",
    "ordinal": "10",
    "description": "Short name of the measurement, test, or examination described in CVTEST. It can be used as a column name when converting a dataset from a vertical to a horizontal format. The value in CVTESTCD cannot be longer than 8 characters, nor can it start with a number (e.g., \"1TEST\" would not be valid). CVTESTCD cannot contain characters other than letters, numbers, or underscores.",
    "mandatory": false,
    "codelist": {
      "code": "C101847",
      "name": "Version-agnostic anchor resource for codelist C101847",
      "href": "/mdr/root/ct/sdtmct/codelists/C101847"
    },
    "origin": "CRF",
    "implementation_notes": ""
  },
  {
    "domain": "CV",
    "name": "CVTEST",
    "label": "Name of Cardiovascular Test",
    "type": "Char",
    "length": "",
    "role": "Synonym Qualifier",
    "core": "Req",
    "ordinal": "11",
    "description": "Long name For CVTESTCD. The value in CVTEST cannot be longer than 40 characters.",
    "mandatory": false,
    "codelist": {
      "code": "C101846",
      "name": "Version-agnostic anchor resource for codelist C101846",
      "href": "/mdr/root/ct/sdtmct/codelists/C101846"
    },
    "origin": "CRF",
    "implementation_notes": ""
  },
  {
    "domain": "CV",
    "name": "CVCAT",
    "label": "Category for Cardiovascular Test",
    "type": "Char",
    "length": "",
    "role": "Grouping Qualifier",
    "core": "Perm",
    "ordinal": "12",
    "description": "Used to define a category of topic-variable values.",
    "mandatory": false,
    "codelist": null,
    "origin": "CRF",
    "implementation_notes": ""
  },
  {
    "domain": "CV",
    "name": "CVSCAT",
    "label": "Subcategory for Cardiovascular Test",
    "type": "Char",
    "length": "",
    "role": "Grouping Qualifier",
    "core": "Perm",
    "ordinal": "13",
    "description": "Used to define a further categorization of CVCAT values.",
    "mandatory": false,
    "codelist": null,
    "origin": "CRF",
    "implementation_notes": ""
  },
  {
    "domain": "CV",
    "name": "CVPOS",
    "label": "Position of Subject During Observation",
    "type": "Char",
    "length": "",
    "role": "Record Qualifier",
    "core": "Perm",
    "ordinal": "14",
    "description": "Position of the subject during a measurement or examination. Examples: \"SUPINE\", \"STANDING\", \"SITTING\".",
    "mandatory": false,
    "codelist": {
      "code": "C71148",
      "name": "Version-agnostic anchor resource for codelist C71148",
      "href": "/mdr/root/ct/sdtmct/codelists/C71148"
    },
    "origin": "CRF",
    "implementation_notes": ""
  },
  {
    "domain": "CV",
    "name": "CVORRES",
    "label": "Result or Finding in Original Units",
    "type": "Char",
    "length": "",
    "role": "Result Qualifier",
    "core": "Exp",
    "ordinal": "15",
    "description": "Result of the measurement or finding as originally received or collected.",
    "mandatory": false,
    "codelist": null,
    "origin": "CRF",
    "implementation_notes": ""
  },
  {
    "domain": "CV",
    "name": "CVORRESU",
    "label": "Original Units",
    "type": "Char",
    "length": "",
    "role": "Variable Qualifier",
    "core": "Perm",
    "ordinal": "16",
    "description": "Original units in which the data were collected. Unit for CVORRES.",
    "mandatory": false,
    "codelist": {
      "code": "C71620",
      "name": "Version-agnostic anchor resource for codelist C71620",
      "href": "/mdr/root/ct/sdtmct/codelists/C71620"
    },
    "origin": "CRF",
    "implementation_notes": ""
  },
  {
    "domain": "CV",
    "name": "CVSTRESC",
    "label": "Character Result/Finding in Std Format",
    "type": "Char",
    "length": "",
    "role": "Result Qualifier",
    "core": "Exp",
    "ordinal": "17",
    "description": "Contains the result value for all findings, copied or derived, from CVORRES in a standard format or in standard units. CVSTRESC should store all results or findings in character format; if results are numeric, they should also be stored in numeric format in CVSTRESN. For example, if various tests have results \"NONE\", \"NEG\", and \"NEGATIVE\" in CVORRES and these results effectively have the same meaning, they could be represented in standard format in CVSTRESC as \"NEGATIVE\".",
    "mandatory": false,
    "codelist": null,
    "origin": "CRF",
    "implementation_notes": ""
  },
  {
    "domain": "CV",
    "name": "CVSTRESN",
    "label": "Numeric Result/Finding in Standard Units",
    "type": "Num",
    "length": "",
    "role": "Result Qualifier",
    "core": "Perm",
    "ordinal": "18",
    "description": "Used for continuous or numeric results or findings in standard format; copied in numeric format from CVSTRESC. CVSTRESN should store all numeric test results or findings.",
    "mandatory": false,
    "codelist": null,
    "origin": "CRF",
    "implementation_notes": ""
  },
  {
    "domain": "CV",
    "name": "CVSTRESU",
    "label": "Standard Units",
    "type": "Char",
    "length": "",
    "role": "Variable Qualifier",
    "core": "Perm",
    "ordinal": "19",
    "description": "Standardized units used for CVSTRESC and CVSTRESN.",
    "mandatory": false,
    "codelist": {
      "code": "C71620",
      "name": "Version-agnostic anchor resource for codelist C71620",
      "href": "/mdr/root/ct/sdtmct/codelists/C71620"
    },
    "origin": "CRF",
    "implementation_notes": ""
  },
  {
    "domain": "CV",
    "name": "CVSTAT",
    "label": "Completion Status",
    "type": "Char",
    "length": "",
    "role": "Record Qualifier",
    "core": "Perm",
    "ordinal": "20",
    "description": "Used to indicate that a question was not asked or a test was not done, or a test was attempted but did not generate a result. Should be null or have a value of \"NOT DONE\".",
    "mandatory": false,
    "codelist": {
      "code": "C66789",
      "name": "Version-agnostic anchor resource for codelist C66789",
      "href": "/mdr/root/ct/sdtmct/codelists/C66789"
    },
    "origin": "CRF",
    "implementation_notes": ""
  },
  {
    "domain": "CV",
    "name": "CVREASND",
    "label": "Reason Not Done",
    "type": "Char",
    "length": "",
    "role": "Record Qualifier",
    "core": "Perm",
    "ordinal": "21",
    "description": "Describes why a measurement or test was not performed (e.g., \"BROKEN EQUIPMENT\", \"SUBJECT REFUSED\"). Used in conjunction with CVSTAT when value is \"NOT DONE\".",
    "mandatory": false,
    "codelist": null,
    "origin": "CRF",
    "implementation_notes": ""
  },
  {
    "domain": "CV",
    "name": "CVLOC",
    "label": "Location Used for the Measurement",
    "type": "Char",
    "length": "",
    "role": "Record Qualifier",
    "core": "Perm",
    "ordinal": "22",
    "description": "Anatomical location of the subject relevant to the collection of the measurement. Examples: \"HEART\", \"LEFT VENTRICLE\".",
    "mandatory": false,
    "codelist": {
      "code": "C74456",
      "name": "Version-agnostic anchor resource for codelist C74456",
      "href": "/mdr/root/ct/sdtmct/codelists/C74456"
    },
    "origin": "CRF",
    "implementation_notes": ""
  },
  {
    "domain": "CV",
    "name": "CVLAT",
    "label": "Laterality",
    "type": "Char",
    "length": "",
    "role": "Variable Qualifier",
    "core": "Perm",
    "ordinal": "23",
    "description": "Qualifier for anatomical location or specimen further detailing laterality. Examples: \"RIGHT\", \"LEFT\", \"BILATERAL\", \"UNILATERAL\".",
    "mandatory": false,
    "codelist": {
      "code": "C99073",
      "name": "Version-agnostic anchor resource for codelist C99073",
      "href": "/mdr/root/ct/sdtmct/codelists/C99073"
    },
    "origin": "CRF",
    "implementation_notes": ""
  },
  {
    "domain": "CV",
    "name": "CVDIR",
    "label": "Directionality",
    "type": "Char",
    "length": "",
    "role": "Variable Qualifier",
    "core": "Perm",
    "ordinal": "24",
    "description": "Qualifier for anatomical location or specimen further detailing directionality. Examples: \"ANTERIOR\", \"LOWER\", \"PROXIMAL\".",
    "mandatory": false,
    "codelist": {
      "code": "C99074",
      "name": "Version-agnostic anchor resource for codelist C99074",
      "href": "/mdr/root/ct/sdtmct/codelists/C99074"
    },
    "origin": "CRF",
    "implementation_notes": ""
  },
  {
    "domain": "CV",
    "name": "CVMETHOD",
    "label": "Method of Test or Examination",
    "type": "Char",
    "length": "",
    "role": "Record Qualifier",
    "core": "Perm",
    "ordinal": "25",
    "description": "Method used to create the result.",
    "mandatory": false,
    "codelist": {
      "code": "C85492",
      "name": "Version-agnostic anchor resource for codelist C85492",
      "href": "/mdr/root/ct/sdtmct/codelists/C85492"
    },
    "origin": "CRF",
    "implementation_notes": ""
  },
  {
    "domain": "CV",
    "name": "CVLOBXFL",
    "label": "Last Observation Before Exposure Flag",
    "type": "Char",
    "length": "",
    "role": "Record Qualifier",
    "core": "Exp",
    "ordinal": "26",
    "description": "Operationally-derived indicator used to identify the last non-missing value prior to RFXSTDTC. The value should be \"Y\" or null.",
    "mandatory": false,
    "codelist": {
      "code": "C66742",
      "name": "Version-agnostic anchor resource for codelist C66742",
      "href": "/mdr/root/ct/sdtmct/codelists/C66742"
    },
    "origin": "CRF",
    "implementation_notes": ""
  },
  {
    "domain": "CV",
    "name": "CVBLFL",
    "label": "Baseline Flag",
    "type": "Char",
    "length": "",
    "role": "Record Qualifier",
    "core": "Perm",
    "ordinal": "27",
    "description": "Indicator used to identify a baseline value. Should be \"Y\" or null. Note that CVBLFL is retained for backward compatibility. The authoritative baseline for statistical analysis is in an ADaM dataset.",
    "mandatory": false,
    "codelist": {
      "code": "C66742",
      "name": "Version-agnostic anchor resource for codelist C66742",
      "href": "/mdr/root/ct/sdtmct/codelists/C66742"
    },
    "origin": "CRF",
    "implementation_notes": ""
  },
  {
    "domain": "CV",
    "name": "CVDRVFL",
    "label": "Derived Flag",
    "type": "Char",
    "length": "",
    "role": "Record Qualifier",
    "core": "Perm",
    "ordinal": "28",
    "description": "Used to indicate a derived record (i.e., a record that represents the average of other records, such as a computed baseline). Should be \"Y\" or null.",
    "mandatory": false,
    "codelist": {
      "code": "C66742",
      "name": "Version-agnostic anchor resource for codelist C66742",
      "href": "/mdr/root/ct/sdtmct/codelists/C66742"
    },
    "origin": "CRF",
    "implementation_notes": ""
  },
  {
    "domain": "CV",
    "name": "CVEVAL",
    "label": "Evaluator",
    "type": "Char",
    "length": "",
    "role": "Record Qualifier",
    "core": "Perm",
    "ordinal": "29",
    "description": "Role of the person who provided the evaluation. Used only for results that are subjective (e.g., assigned by a person or a group). Examples: \"ADJUDICATION COMMITTEE\", \" INDEPENDENT ASSESSOR\", \"RADIOLOGIST\".",
    "mandatory": false,
    "codelist": {
      "code": "C78735",
      "name": "Version-agnostic anchor resource for codelist C78735",
      "href": "/mdr/root/ct/sdtmct/codelists/C78735"
    },
    "origin": "CRF",
    "implementation_notes": ""
  },
  {
    "domain": "CV",
    "name": "CVEVALID",
    "label": "Evaluator Identifier",
    "type": "Char",
    "length": "",
    "role": "Variable Qualifier",
    "core": "Perm",
    "ordinal": "30",
    "description": "Used to distinguish multiple evaluators with the same role recorded in CVEVAL. Examples: \"RADIOLOGIST1\" or \"RADIOLOGIST2\".",
    "mandatory": false,
    "codelist": {
      "code": "C96777",
      "name": "Version-agnostic anchor resource for codelist C96777",
      "href": "/mdr/root/ct/sdtmct/codelists/C96777"
    },
    "origin": "CRF",
    "implementation_notes": ""
  },
  {
    "domain": "CV",
    "name": "VISITNUM",
    "label": "Visit Number",
    "type": "Num",
    "length": "",
    "role": "Timing",
    "core": "Exp",
    "ordinal": "31",
    "description": "Clinical encounter number. Numeric version of VISIT, used for sorting.",
    "mandatory": false,
    "codelist": null,
    "origin": "CRF",
    "implementation_notes": ""
  },
  {
    "domain": "CV",
    "name": "VISIT",
    "label": "Visit Name",
    "type": "Char",
    "length": "",
    "role": "Timing",
    "core": "Perm",
    "ordinal": "32",
    "description": "Protocol-defined description of clinical encounter. May be used in addition to VISITNUM and/or VISITDY.",
    "mandatory": false,
    "codelist": null,
    "origin": "CRF",
    "implementation_notes": ""
  },
  {
    "domain": "CV",
    "name": "VISITDY",
    "label": "Planned Study Day of Visit",
    "type": "Num",
    "length": "",
    "role": "Timing",
    "core": "Perm",
    "ordinal": "33",
    "description": "Planned study day of VISIT. Should be an integer.",
    "mandatory": false,
    "codelist": null,
    "origin": "CRF",
    "implementation_notes": ""
  },
  {
    "domain": "CV",
    "name": "TAETORD",
    "label": "Planned Order of Element within Arm",
    "type": "Num",
    "length": "",
    "role": "Timing",
    "core": "Perm",
    "ordinal": "34",
    "description": "Number that gives the planned order of the element within the arm for the element in which the assessment was made.",
    "mandatory": false,
    "codelist": null,
    "origin": "CRF",
    "implementation_notes": ""
  },
  {
    "domain": "CV",
    "name": "EPOCH",
    "label": "Epoch",
    "type": "Char",
    "length": "",
    "role": "Timing",
    "core": "Perm",
    "ordinal": "35",
    "description": "Epoch associated with the date/time at which the assessment was made.",
    "mandatory": false,
    "codelist": {
      "code": "C99079",
      "name": "Version-agnostic anchor resource for codelist C99079",
      "href": "/mdr/root/ct/sdtmct/codelists/C99079"
    },
    "origin": "CRF",
    "implementation_notes": ""
  },
  {
    "domain": "CV",
    "name": "CVDTC",
    "label": "Date/Time of Test",
    "type": "Char",
    "length": "",
    "role": "Timing",
    "core": "Exp",
    "ordinal": "36",
    "description": "Collection date and time of an observation.",
    "mandatory": false,
    "codelist": null,
    "origin": "CRF",
    "implementation_notes": ""
  },
  {
    "domain": "CV",
    "name": "CVDY",
    "label": "Study Day of Visit/Collection/Exam",
    "type": "Num",
    "length": "",
    "role": "Timing",
    "core": "Perm",
    "ordinal": "37",
    "description": "Actual study day of visit/collection/exam expressed in integer days relative to the sponsor-defined RFSTDTC in Demographics.",
    "mandatory": false,
    "codelist": null,
    "origin": "CRF",
    "implementation_notes": ""
  },
  {
    "domain": "CV",
    "name": "CVTPT",
    "label": "Planned Time Point Name",
    "type": "Char",
    "length": "",
    "role": "Timing",
    "core": "Perm",
    "ordinal": "38",
    "description": "Text description of time when a measurement or observation should be taken, as defined in the protocol. This may be represented as an elapsed time relative to a fixed reference point, such as time of last dose. See CVTPTNUM and CVTPTREF.",
    "mandatory": false,
    "codelist": null,
    "origin": "CRF",
    "implementation_notes": ""
  },
  {
    "domain": "CV",
    "name": "CVTPTNUM",
    "label": "Planned Time Point Number",
    "type": "Num",
    "length": "",
    "role": "Timing",
    "core": "Perm",
    "ordinal": "39",
    "description": "Numeric version of planned time point used in sorting.",
    "mandatory": false,
    "codelist": null,
    "origin": "CRF",
    "implementation_notes": ""
  },
  {
    "domain": "CV",
    "name": "CVELTM",
    "label": "Planned Elapsed Time from Time Point Ref",
    "type": "Char",
    "length": "",
    "role": "Timing",
    "core": "Perm",
    "ordinal": "40",
    "description": "Planned elapsed time relative to a planned fixed reference (CVTPTREF). Examples: \"PREVIOUS DOSE\", \"PREVIOUS MEAL\". This variable is useful where there are repetitive measures. Not a clock time or a date/time variable, but an interval, represented as ISO duration.",
    "mandatory": false,
    "codelist": null,
    "origin": "CRF",
    "implementation_notes": ""
  },
  {
    "domain": "CV",
    "name": "CVTPTREF",
    "label": "Time Point Reference",
    "type": "Char",
    "length": "",
    "role": "Timing",
    "core": "Perm",
    "ordinal": "41",
    "description": "Description of the fixed reference point referred to by CVELTM, CVTPTNUM, and CVTPT. Examples: \"PREVIOUS DOSE\", \"PREVIOUS MEAL\".",
    "mandatory": false,
    "codelist": null,
    "origin": "CRF",
    "implementation_notes": ""
  },
  {
    "domain": "CV",
    "name": "CVRFTDTC",
    "label": "Date/Time of Reference Time Point",
    "type": "Char",
    "length": "",
    "role": "Timing",
    "core": "Perm",
    "ordinal": "42",
    "description": "Date/time for a fixed reference time point defined by CVTPTREF.",
    "mandatory": false,
    "codelist": null,
    "origin": "CRF",
    "implementation_notes": ""
  },
  {
    "domain": "DA",
    "name": "STUDYID",
    "label": "Study Identifier",
    "type": "Char",
    "length": "",
    "role": "Identifier",
    "core": "Req",
    "ordinal": "1",
    "description": "Unique identifier for a study within the submission.",
    "mandatory": false,
    "codelist": null,
    "origin": "CRF",
    "implementation_notes": ""
  },
  {
    "domain": "DA",
    "name": "DOMAIN",
    "label": "Domain Abbreviation",
    "type": "Char",
    "length": "",
    "role": "Identifier",
    "core": "Req",
    "ordinal": "2",
    "description": "Two-character abbreviation for the domain.",
    "mandatory": false,
    "codelist": null,
    "origin": "CRF",
    "implementation_notes": ""
  },
  {
    "domain": "DA",
    "name": "USUBJID",
    "label": "Unique Subject Identifier",
    "type": "Char",
    "length": "",
    "role": "Identifier",
    "core": "Req",
    "ordinal": "3",
    "description": "Identifier used to uniquely identify a subject across all studies for all applications or submissions involving the product.",
    "mandatory": false,
    "codelist": null,
    "origin": "CRF",
    "implementation_notes": ""
  },
  {
    "domain": "DA",
    "name": "DASEQ",
    "label": "Sequence Number",
    "type": "Num",
    "length": "",
    "role": "Identifier",
    "core": "Req",
    "ordinal": "4",
    "description": "Sequence number given to ensure uniqueness of subject records within a domain. May be any valid number.",
    "mandatory": false,
    "codelist": null,
    "origin": "CRF",
    "implementation_notes": ""
  },
  {
    "domain": "DA",
    "name": "DAGRPID",
    "label": "Group ID",
    "type": "Char",
    "length": "",
    "role": "Identifier",
    "core": "Perm",
    "ordinal": "5",
    "description": "Used to tie together a block of related records in a single domain for a subject.",
    "mandatory": false,
    "codelist": null,
    "origin": "CRF",
    "implementation_notes": ""
  },
  {
    "domain": "DA",
    "name": "DAREFID",
    "label": "Reference ID",
    "type": "Char",
    "length": "",
    "role": "Identifier",
    "core": "Perm",
    "ordinal": "6",
    "description": "Optional internal or external identifier such as a code from the product packaging (e.g., bottle label, package label, kit label).",
    "mandatory": false,
    "codelist": null,
    "origin": "CRF",
    "implementation_notes": ""
  },
  {
    "domain": "DA",
    "name": "DASPID",
    "label": "Sponsor-Defined Identifier",
    "type": "Char",
    "length": "",
    "role": "Identifier",
    "core": "Perm",
    "ordinal": "7",
    "description": "Sponsor-defined reference number. May be preprinted on the CRF as an explicit line identifier or defined in the sponsor's operational database. Examples: Line number on the Product Accountability CRF page, a code from the product packaging (e.g., bottle label, package label, kit label).",
    "mandatory": false,
    "codelist": null,
    "origin": "CRF",
    "implementation_notes": ""
  },
  {
    "domain": "DA",
    "name": "DALNKID",
    "label": "Link ID",
    "type": "Char",
    "length": "",
    "role": "Identifier",
    "core": "Perm",
    "ordinal": "8",
    "description": "Identifier used to link related records across domains. This may be a one-to-one or a one-to-many relationship.",
    "mandatory": false,
    "codelist": null,
    "origin": "CRF",
    "implementation_notes": ""
  },
  {
    "domain": "DA",
    "name": "DALNKGRP",
    "label": "Link Group ID",
    "type": "Char",
    "length": "",
    "role": "Identifier",
    "core": "Perm",
    "ordinal": "9",
    "description": "Identifier used to link related records across domains. This will usually be a many-to-one relationship.",
    "mandatory": false,
    "codelist": null,
    "origin": "CRF",
    "implementation_notes": ""
  },
  {
    "domain": "DA",
    "name": "DATESTCD",
    "label": "Short Name of Accountability Assessment",
    "type": "Char",
    "length": "",
    "role": "Topic",
    "core": "Req",
    "ordinal": "10",
    "description": "Short character value for DATEST used as a column name when converting a dataset from a vertical format to a horizontal format. The short value can be up to 8 characters and cannot begin with a number or contain characters other than letters, numbers, or underscores. Examples: \"DISPAMT\", \"RETAMT\".",
    "mandatory": false,
    "codelist": {
      "code": "C78732",
      "name": "Version-agnostic anchor resource for codelist C78732",
      "href": "/mdr/root/ct/sdtmct/codelists/C78732"
    },
    "origin": "CRF",
    "implementation_notes": ""
  },
  {
    "domain": "DA",
    "name": "DATEST",
    "label": "Name of Accountability Assessment",
    "type": "Char",
    "length": "",
    "role": "Synonym Qualifier",
    "core": "Req",
    "ordinal": "11",
    "description": "Verbatim name corresponding to the topic variable of the test or examination used to obtain the product accountability assessment. The value in DATEST cannot be longer than 40 characters. Examples: \"Dispensed Amount\", \"Returned Amount\".",
    "mandatory": false,
    "codelist": {
      "code": "C78731",
      "name": "Version-agnostic anchor resource for codelist C78731",
      "href": "/mdr/root/ct/sdtmct/codelists/C78731"
    },
    "origin": "CRF",
    "implementation_notes": ""
  },
  {
    "domain": "DA",
    "name": "DACAT",
    "label": "Category",
    "type": "Char",
    "length": "",
    "role": "Grouping Qualifier",
    "core": "Perm",
    "ordinal": "12",
    "description": "Used to define a category of topic-variable values. Examples: \"STUDY MEDICATION\", \"RESCUE MEDICATION\".",
    "mandatory": false,
    "codelist": null,
    "origin": "CRF",
    "implementation_notes": ""
  },
  {
    "domain": "DA",
    "name": "DASCAT",
    "label": "Subcategory",
    "type": "Char",
    "length": "",
    "role": "Grouping Qualifier",
    "core": "Perm",
    "ordinal": "13",
    "description": "Used to define a further categorization level for a group of related records.",
    "mandatory": false,
    "codelist": null,
    "origin": "CRF",
    "implementation_notes": ""
  },
  {
    "domain": "DA",
    "name": "DAORRES",
    "label": "Result or Finding in Original Units",
    "type": "Char",
    "length": "",
    "role": "Result Qualifier",
    "core": "Exp",
    "ordinal": "14",
    "description": "Result of the product accountability assessment as originally received or collected.",
    "mandatory": false,
    "codelist": null,
    "origin": "CRF",
    "implementation_notes": ""
  },
  {
    "domain": "DA",
    "name": "DAORRESU",
    "label": "Original Units",
    "type": "Char",
    "length": "",
    "role": "Variable Qualifier",
    "core": "Perm",
    "ordinal": "15",
    "description": "Unit for DAORRES.",
    "mandatory": false,
    "codelist": {
      "code": "C71620",
      "name": "Version-agnostic anchor resource for codelist C71620",
      "href": "/mdr/root/ct/sdtmct/codelists/C71620"
    },
    "origin": "CRF",
    "implementation_notes": ""
  },
  {
    "domain": "DA",
    "name": "DASTRESC",
    "label": "Result or Finding in Standard Format",
    "type": "Char",
    "length": "",
    "role": "Result Qualifier",
    "core": "Exp",
    "ordinal": "16",
    "description": "Contains the result value for all product accountability assessments copied or derived from DAORRES, in a standard format or in standard units. DASTRESC should store all results or findings in character format; if results are numeric, they should also be stored in numeric format in DASTRESN.",
    "mandatory": false,
    "codelist": null,
    "origin": "CRF",
    "implementation_notes": ""
  },
  {
    "domain": "DA",
    "name": "DASTRESN",
    "label": "Numeric Result/Finding in Standard Units",
    "type": "Num",
    "length": "",
    "role": "Result Qualifier",
    "core": "Perm",
    "ordinal": "17",
    "description": "Used for continuous or numeric results or findings in standard format; copied in numeric format from DASTRESC. DASTRESN should store all numeric test results or findings.",
    "mandatory": false,
    "codelist": null,
    "origin": "CRF",
    "implementation_notes": ""
  },
  {
    "domain": "DA",
    "name": "DASTRESU",
    "label": "Standard Units",
    "type": "Char",
    "length": "",
    "role": "Variable Qualifier",
    "core": "Perm",
    "ordinal": "18",
    "description": "Standardized units used for DASTRESC and DASTRESN.",
    "mandatory": false,
    "codelist": {
      "code": "C71620",
      "name": "Version-agnostic anchor resource for codelist C71620",
      "href": "/mdr/root/ct/sdtmct/codelists/C71620"
    },
    "origin": "CRF",
    "implementation_notes": ""
  },
  {
    "domain": "DA",
    "name": "DASTAT",
    "label": "Completion Status",
    "type": "Char",
    "length": "",
    "role": "Record Qualifier",
    "core": "Perm",
    "ordinal": "19",
    "description": "Used to indicate that a product accountability assessment was not done. Should be null or have a value of \"NOT DONE\".",
    "mandatory": false,
    "codelist": {
      "code": "C66789",
      "name": "Version-agnostic anchor resource for codelist C66789",
      "href": "/mdr/root/ct/sdtmct/codelists/C66789"
    },
    "origin": "CRF",
    "implementation_notes": ""
  },
  {
    "domain": "DA",
    "name": "DAREASND",
    "label": "Reason Not Done",
    "type": "Char",
    "length": "",
    "role": "Record Qualifier",
    "core": "Perm",
    "ordinal": "20",
    "description": "Reason not done. Used in conjunction with DASTAT when value is \"NOT DONE\".",
    "mandatory": false,
    "codelist": null,
    "origin": "CRF",
    "implementation_notes": ""
  },
  {
    "domain": "DA",
    "name": "VISITNUM",
    "label": "Visit Number",
    "type": "Num",
    "length": "",
    "role": "Timing",
    "core": "Exp",
    "ordinal": "21",
    "description": "Clinical encounter number. Numeric version of VISIT, used for sorting.",
    "mandatory": false,
    "codelist": null,
    "origin": "CRF",
    "implementation_notes": ""
  },
  {
    "domain": "DA",
    "name": "VISIT",
    "label": "Visit Name",
    "type": "Char",
    "length": "",
    "role": "Timing",
    "core": "Perm",
    "ordinal": "22",
    "description": "Protocol-defined description of a clinical encounter. May be used in addition to VISITNUM and/or VISITDY.",
    "mandatory": false,
    "codelist": null,
    "origin": "CRF",
    "implementation_notes": ""
  },
  {
    "domain": "DA",
    "name": "VISITDY",
    "label": "Planned Study Day of Visit",
    "type": "Num",
    "length": "",
    "role": "Timing",
    "core": "Perm",
    "ordinal": "23",
    "description": "Planned study day of the visit, based upon RFSTDTC in Demographics.",
    "mandatory": false,
    "codelist": null,
    "origin": "CRF",
    "implementation_notes": ""
  },
  {
    "domain": "DA",
    "name": "TAETORD",
    "label": "Planned Order of Element within Arm",
    "type": "Num",
    "length": "",
    "role": "Timing",
    "core": "Perm",
    "ordinal": "24",
    "description": "Number that gives the planned order of the element within the arm (see Section 7.2.1, Trial Arms).",
    "mandatory": false,
    "codelist": null,
    "origin": "CRF",
    "implementation_notes": ""
  },
  {
    "domain": "DA",
    "name": "EPOCH",
    "label": "Epoch",
    "type": "Char",
    "length": "",
    "role": "Timing",
    "core": "Perm",
    "ordinal": "25",
    "description": "Epoch associated with the start date/time of the observation, or the date/time of collection if start date/time is not collected.",
    "mandatory": false,
    "codelist": {
      "code": "C99079",
      "name": "Version-agnostic anchor resource for codelist C99079",
      "href": "/mdr/root/ct/sdtmct/codelists/C99079"
    },
    "origin": "CRF",
    "implementation_notes": ""
  },
  {
    "domain": "DA",
    "name": "DADTC",
    "label": "Date/Time of Collection",
    "type": "Char",
    "length": "",
    "role": "Timing",
    "core": "Exp",
    "ordinal": "26",
    "description": "Date and time of the product accountability assessment represented in ISO 8601 character format.",
    "mandatory": false,
    "codelist": null,
    "origin": "CRF",
    "implementation_notes": ""
  },
  {
    "domain": "DA",
    "name": "DADY",
    "label": "Study Day of Visit/Collection/Exam",
    "type": "Num",
    "length": "",
    "role": "Timing",
    "core": "Perm",
    "ordinal": "27",
    "description": "Study day of product accountability assessment, measured in integer days. Algorithm for calculations must be relative to the sponsor-defined RFSTDTC in Demographics.",
    "mandatory": false,
    "codelist": null,
    "origin": "CRF",
    "implementation_notes": ""
  },
  {
    "domain": "DD",
    "name": "STUDYID",
    "label": "Study Identifier",
    "type": "Char",
    "length": "",
    "role": "Identifier",
    "core": "Req",
    "ordinal": "1",
    "description": "Unique identifier for a study.",
    "mandatory": false,
    "codelist": null,
    "origin": "CRF",
    "implementation_notes": ""
  },
  {
    "domain": "DD",
    "name": "DOMAIN",
    "label": "Domain Abbreviation",
    "type": "Char",
    "length": "",
    "role": "Identifier",
    "core": "Req",
    "ordinal": "2",
    "description": "Two-character abbreviation for the domain.",
    "mandatory": false,
    "codelist": null,
    "origin": "CRF",
    "implementation_notes": ""
  },
  {
    "domain": "DD",
    "name": "USUBJID",
    "label": "Unique Subject Identifier",
    "type": "Char",
    "length": "",
    "role": "Identifier",
    "core": "Req",
    "ordinal": "3",
    "description": "Identifier used to uniquely identify a subject across all studies for all applications or submissions involving the product.",
    "mandatory": false,
    "codelist": null,
    "origin": "CRF",
    "implementation_notes": ""
  },
  {
    "domain": "DD",
    "name": "DDSEQ",
    "label": "Sequence Number",
    "type": "Num",
    "length": "",
    "role": "Identifier",
    "core": "Req",
    "ordinal": "4",
    "description": "Sequence number given to ensure uniqueness of subject records within a domain. May be any valid number.",
    "mandatory": false,
    "codelist": null,
    "origin": "CRF",
    "implementation_notes": ""
  },
  {
    "domain": "DD",
    "name": "DDTESTCD",
    "label": "Death Detail Assessment Short Name",
    "type": "Char",
    "length": "",
    "role": "Topic",
    "core": "Req",
    "ordinal": "5",
    "description": "Short name of the measurement, test, or examination described in DDTEST. It can be used as a column name when converting a dataset from a vertical to a horizontal format. The value in DDTESTCD cannot be longer than 8 characters, nor can it start with a number (e.g., \"1TEST\" is not valid). DDTESTCD cannot contain characters other than letters, numbers, or underscores. Examples: \"PRCDTH\", \"SECDTH\".",
    "mandatory": false,
    "codelist": {
      "code": "C116108",
      "name": "Version-agnostic anchor resource for codelist C116108",
      "href": "/mdr/root/ct/sdtmct/codelists/C116108"
    },
    "origin": "CRF",
    "implementation_notes": ""
  },
  {
    "domain": "DD",
    "name": "DDTEST",
    "label": "Death Detail Assessment Name",
    "type": "Char",
    "length": "",
    "role": "Synonym Qualifier",
    "core": "Req",
    "ordinal": "6",
    "description": "Long name for DDTESTCD. The value in DDTEST cannot be longer than 40 characters. Examples: \"Primary Cause of Death\", \"Secondary Cause of Death\".",
    "mandatory": false,
    "codelist": {
      "code": "C116107",
      "name": "Version-agnostic anchor resource for codelist C116107",
      "href": "/mdr/root/ct/sdtmct/codelists/C116107"
    },
    "origin": "CRF",
    "implementation_notes": ""
  },
  {
    "domain": "DD",
    "name": "DDORRES",
    "label": "Result or Finding as Collected",
    "type": "Char",
    "length": "",
    "role": "Result Qualifier",
    "core": "Exp",
    "ordinal": "7",
    "description": "Result of the test defined in DDTEST, as originally received or collected.",
    "mandatory": false,
    "codelist": null,
    "origin": "CRF",
    "implementation_notes": ""
  },
  {
    "domain": "DD",
    "name": "DDSTRESC",
    "label": "Character Result/Finding in Std Format",
    "type": "Char",
    "length": "",
    "role": "Result Qualifier",
    "core": "Exp",
    "ordinal": "8",
    "description": "Contains the result or finding copied or derived from DDORRES in a standard format.",
    "mandatory": false,
    "codelist": null,
    "origin": "CRF",
    "implementation_notes": ""
  },
  {
    "domain": "DD",
    "name": "DDRESCAT",
    "label": "Result Category",
    "type": "Char",
    "length": "",
    "role": "Variable Qualifier",
    "core": "Perm",
    "ordinal": "9",
    "description": "Used to categorize the result of a finding. Examples: \"TREATMENT RELATED\", \"NONTREATMENT RELATED\", \"UNDETERMINED\", \"ACCIDENTAL\".",
    "mandatory": false,
    "codelist": null,
    "origin": "CRF",
    "implementation_notes": ""
  },
  {
    "domain": "DD",
    "name": "DDEVAL",
    "label": "Evaluator",
    "type": "Char",
    "length": "",
    "role": "Record Qualifier",
    "core": "Perm",
    "ordinal": "10",
    "description": "Role of the person who provided the evaluation.",
    "mandatory": false,
    "codelist": {
      "code": "C78735",
      "name": "Version-agnostic anchor resource for codelist C78735",
      "href": "/mdr/root/ct/sdtmct/codelists/C78735"
    },
    "origin": "CRF",
    "implementation_notes": ""
  },
  {
    "domain": "DD",
    "name": "DDDTC",
