{
  "STUDYID": {
    "pattern": "STUDYID",
    "common_label": "Study Identifier",
    "common_description": "Unique identifier for a study.",
    "common_role": "Identifier",
    "domains": [
      "AG",
      "CM",
      "EC",
      "EX",
      "ML",
      "PR",
      "SU",
      "AE",
      "BE",
      "CE",
      "DS",
      "DV",
      "HO",
      "MH",
      "BS",
      "CP",
      "CV",
      "DA",
      "DD",
      "EG",
      "FT",
      "GF",
      "IE",
      "IS",
      "LB",
      "MB",
      "MI",
      "MK",
      "MS",
      "NV",
      "OE",
      "PC",
      "PE",
      "PP",
      "QS",
      "RE",
      "RP",
      "RS",
      "SC",
      "SS",
      "TR",
      "TU",
      "UR",
      "VS",
      "FA",
      "SR",
      "CO",
      "DM",
      "SE",
      "SM",
      "SV",
      "TA",
      "TD",
      "TE",
      "TI",
      "TM",
      "TS",
      "TV",
      "OI",
      "RELREC",
      "RELSPEC",
      "RELSUB",
      "SUPPQUAL"
    ],
    "example_variables": [
      "AG.STUDYID",
      "CM.STUDYID",
      "EC.STUDYID",
      "EX.STUDYID",
      "ML.STUDYID"
    ]
  },
  "DOMAIN": {
    "pattern": "DOMAIN",
    "common_label": "Domain Abbreviation",
    "common_description": "Two-character abbreviation for the domain.",
    "common_role": "Identifier",
    "domains": [
      "AG",
      "CM",
      "EC",
      "EX",
      "ML",
      "PR",
      "SU",
      "AE",
      "BE",
      "CE",
      "DS",
      "DV",
      "HO",
      "MH",
      "BS",
      "CP",
      "CV",
      "DA",
      "DD",
      "EG",
      "FT",
      "GF",
      "IE",
      "IS",
      "LB",
      "MB",
      "MI",
      "MK",
      "MS",
      "NV",
      "OE",
      "PC",
      "PE",
      "PP",
      "QS",
      "RE",
      "RP",
      "RS",
      "SC",
      "SS",
      "TR",
      "TU",
      "UR",
      "VS",
      "FA",
      "SR",
      "CO",
      "CO",
      "DM",
      "SE",
      "SM",
      "SV",
      "TA",
      "TD",
      "TE",
      "TI",
      "TM",
      "TS",
      "TV",
      "OI",
      "RELREC",
      "SUPPQUAL"
    ],
    "example_variables": [
      "AG.DOMAIN",
      "CM.DOMAIN",
      "EC.DOMAIN",
      "EX.DOMAIN",
      "ML.DOMAIN"
    ]
  },
  "USUBJID": {
    "pattern": "USUBJID",
    "common_label": "Unique Subject Identifier",
    "common_description": "Identifier used to uniquely identify a subject across all studies for all applications or submissions involving the product.",
    "common_role": "Identifier",
    "domains": [
      "AG",
      "CM",
      "EC",
      "EX",
      "ML",
      "PR",
      "SU",
      "AE",
      "BE",
      "CE",
      "DS",
      "DV",
      "HO",
      "MH",
      "BS",
      "CP",
      "CV",
      "DA",
      "DD",
      "EG",
      "FT",
      "GF",
      "IE",
      "IS",
      "LB",
      "MB",
      "MI",
      "MK",
      "MS",
      "NV",
      "OE",
      "PC",
      "PE",
      "PP",
      "QS",
      "RE",
      "RP",
      "RS",
      "SC",
      "SS",
      "TR",
      "TU",
      "UR",
      "VS",
      "FA",
      "SR",
      "CO",
      "DM",
      "SE",
      "SM",
      "SV",
      "RELREC",
      "RELSPEC",
      "RELSUB",
      "SUPPQUAL"
    ],
    "example_variables": [
      "AG.USUBJID",
      "CM.USUBJID",
      "EC.USUBJID",
      "EX.USUBJID",
      "ML.USUBJID"
    ]
  },
  "SUBJID": {
    "pattern": "SUBJID",
    "common_label": "Unique Subject Identifier",
    "common_description": "Identifier used to uniquely identify a subject across all studies for all applications or submissions involving the product.",
    "common_role": "Identifier",
    "domains": [
      "AG",
      "CM",
      "EC",
      "EX",
      "ML",
      "PR",
      "SU",
      "AE",
      "BE",
      "CE",
      "DS",
      "DV",
      "HO",
      "MH",
      "BS",
      "CP",
      "CV",
      "DA",
      "DD",
      "EG",
      "FT",
      "GF",
      "IE",
      "IS",
      "LB",
      "MB",
      "MI",
      "MK",
      "MS",
      "NV",
      "OE",
      "PC",
      "PE",
      "PP",
      "QS",
      "RE",
      "RP",
      "RS",
      "SC",
      "SS",
      "TR",
      "TU",
      "UR",
      "VS",
      "FA",
      "SR",
      "CO",
      "DM",
      "DM",
      "SE",
      "SM",
      "SV",
      "RELREC",
      "RELSPEC",
      "RELSUB",
      "RELSUB",
      "SUPPQUAL"
    ],
    "example_variables": [
      "AG.USUBJID",
      "CM.USUBJID",
      "EC.USUBJID",
      "EX.USUBJID",
      "ML.USUBJID"
    ]
  },
  "VISITNUM": {
    "pattern": "VISITNUM",
    "common_label": "Visit Number",
    "common_description": "1. Clinical encounter number. \\n 2. Numeric version of VISIT, used for sorting.",
    "common_role": "Timing",
    "domains": [
      "AG",
      "ML",
      "PR",
      "BE",
      "BS",
      "CP",
      "CV",
      "DA",
      "EG",
      "FT",
      "GF",
      "IE",
      "IS",
      "LB",
      "MB",
      "MI",
      "MK",
      "MS",
      "NV",
      "OE",
      "PC",
      "PE",
      "QS",
      "RE",
      "RP",
      "RS",
      "SC",
      "SS",
      "TR",
      "TU",
      "UR",
      "VS",
      "FA",
      "SR",
      "SV",
      "TV"
    ],
    "example_variables": [
      "AG.VISITNUM",
      "ML.VISITNUM",
      "PR.VISITNUM",
      "BE.VISITNUM",
      "BS.VISITNUM"
    ]
  },
  "VISIT": {
    "pattern": "VISIT",
    "common_label": "Visit Number",
    "common_description": "1. Clinical encounter number. \\n 2. Numeric version of VISIT, used for sorting.",
    "common_role": "Timing",
    "domains": [
      "AG",
      "AG",
      "AG",
      "ML",
      "ML",
      "ML",
      "PR",
      "PR",
      "PR",
      "BE",
      "BE",
      "BE",
      "BS",
      "BS",
      "BS",
      "CP",
      "CP",
      "CP",
      "CV",
      "CV",
      "CV",
      "DA",
      "DA",
      "DA",
      "EG",
      "EG",
      "EG",
      "FT",
      "FT",
      "FT",
      "GF",
      "GF",
      "GF",
      "IE",
      "IE",
      "IE",
      "IS",
      "IS",
      "IS",
      "LB",
      "LB",
      "LB",
      "MB",
      "MB",
      "MB",
      "MI",
      "MI",
      "MI",
      "MK",
      "MK",
      "MK",
      "MS",
      "MS",
      "MS",
      "NV",
      "NV",
      "NV",
      "OE",
      "OE",
      "OE",
      "PC",
      "PC",
      "PC",
      "PE",
      "PE",
      "PE",
      "QS",
      "QS",
      "QS",
      "RE",
      "RE",
      "RE",
      "RP",
      "RP",
      "RP",
      "RS",
      "RS",
      "RS",
      "SC",
      "SC",
      "SC",
      "SS",
      "SS",
      "SS",
      "TR",
      "TR",
      "TR",
      "TU",
      "TU",
      "TU",
      "UR",
      "UR",
      "UR",
      "VS",
      "VS",
      "VS",
      "FA",
      "FA",
      "FA",
      "SR",
      "SR",
      "SR",
      "SV",
      "SV",
      "SV",
      "TV",
      "TV",
      "TV"
    ],
    "example_variables": [
      "AG.VISITNUM",
      "AG.VISIT",
      "AG.VISITDY",
      "ML.VISITNUM",
      "ML.VISIT"
    ]
  },
  "VISITDY": {
    "pattern": "VISITDY",
    "common_label": "Planned Study Day of Visit",
    "common_description": "Planned study day of the visit based upon RFSTDTC in Demographics.",
    "common_role": "Timing",
    "domains": [
      "AG",
      "ML",
      "PR",
      "BE",
      "BS",
      "CP",
      "CV",
      "DA",
      "EG",
      "FT",
      "GF",
      "IE",
      "IS",
      "LB",
      "MB",
      "MI",
      "MK",
      "MS",
      "NV",
      "OE",
      "PC",
      "PE",
      "QS",
      "RE",
      "RP",
      "RS",
      "SC",
      "SS",
      "TR",
      "TU",
      "UR",
      "VS",
      "FA",
      "SR",
      "SV",
      "TV"
    ],
    "example_variables": [
      "AG.VISITDY",
      "ML.VISITDY",
      "PR.VISITDY",
      "BE.VISITDY",
      "BS.VISITDY"
    ]
  },
  "DTC": {
    "pattern": "DTC",
    "common_label": "Start Date/Time of Agent",
    "common_description": "The date/time when administration of the treatment indicated by AGTRT and the dosing variables began.",
    "common_role": "Timing",
    "domains": [
      "AG",
      "AG",
      "CM",
      "CM",
      "EC",
      "EC",
      "EC",
      "EX",
      "EX",
      "EX",
      "ML",
      "ML",
      "ML",
      "ML",
      "ML",
      "PR",
      "PR",
      "PR",
      "SU",
      "SU",
      "AE",
      "AE",
      "BE",
      "BE",
      "BE",
      "CE",
      "CE",
      "CE",
      "DS",
      "DS",
      "DV",
      "DV",
      "HO",
      "HO",
      "HO",
      "MH",
      "MH",
      "MH",
      "BS",
      "BS",
      "CP",
      "CP",
      "CV",
      "CV",
      "DA",
      "DD",
      "EG",
      "EG",
      "FT",
      "FT",
      "GF",
      "GF",
      "IE",
      "IS",
      "IS",
      "IS",
      "LB",
      "LB",
      "LB",
      "MB",
      "MB",
      "MI",
      "MK",
      "MK",
      "MS",
      "MS",
      "NV",
      "NV",
      "OE",
      "OE",
      "PC",
      "PC",
      "PC",
      "PE",
      "PP",
      "PP",
      "QS",
      "QS",
      "RE",
      "RE",
      "RP",
      "RP",
      "RS",
      "RS",
      "SC",
      "SS",
      "TR",
      "TU",
      "UR",
      "UR",
      "VS",
      "VS",
      "FA",
      "SR",
      "SR",
      "CO",
      "DM",
      "DM",
      "DM",
      "DM",
      "DM",
      "DM",
      "DM",
      "DM",
      "DM",
      "DM",
      "DM",
      "SE",
      "SE",
      "SM",
      "SM",
      "SV",
      "SV"
    ],
    "example_variables": [
      "AG.AGSTDTC",
      "AG.AGENDTC",
      "CM.CMSTDTC",
      "CM.CMENDTC",
      "EC.ECSTDTC"
    ]
  },
  "DY": {
    "pattern": "DY",
    "common_label": "Study Identifier",
    "common_description": "Unique identifier for a study.",
    "common_role": "Identifier",
    "domains": [
      "AG",
      "AG",
      "AG",
      "AG",
      "CM",
      "CM",
      "CM",
      "EC",
      "EC",
      "EC",
      "EX",
      "EX",
      "EX",
      "ML",
      "ML",
      "ML",
      "ML",
      "ML",
      "PR",
      "PR",
      "PR",
      "PR",
      "SU",
      "SU",
      "SU",
      "AE",
      "AE",
      "AE",
      "BE",
      "BE",
      "BE",
      "BE",
      "CE",
      "CE",
      "CE",
      "CE",
      "DS",
      "DS",
      "DS",
      "DV",
      "DV",
      "DV",
      "HO",
      "HO",
      "HO",
      "HO",
      "MH",
      "MH",
      "BS",
      "BS",
      "BS",
      "CP",
      "CP",
      "CP",
      "CV",
      "CV",
      "CV",
      "DA",
      "DA",
      "DA",
      "DD",
      "DD",
      "EG",
      "EG",
      "EG",
      "FT",
      "FT",
      "FT",
      "GF",
      "GF",
      "GF",
      "IE",
      "IE",
      "IE",
      "IS",
      "IS",
      "IS",
      "IS",
      "LB",
      "LB",
      "LB",
      "LB",
      "MB",
      "MB",
      "MB",
      "MI",
      "MI",
      "MI",
      "MK",
      "MK",
      "MK",
      "MS",
      "MS",
      "MS",
      "NV",
      "NV",
      "NV",
      "OE",
      "OE",
      "OE",
      "PC",
      "PC",
      "PC",
      "PC",
      "PE",
      "PE",
      "PE",
      "PP",
      "PP",
      "QS",
      "QS",
      "QS",
      "RE",
      "RE",
      "RE",
      "RP",
      "RP",
      "RP",
      "RS",
      "RS",
      "RS",
      "SC",
      "SC",
      "SC",
      "SS",
      "SS",
      "SS",
      "TR",
      "TR",
      "TR",
      "TU",
      "TU",
      "TU",
      "UR",
      "UR",
      "UR",
      "VS",
      "VS",
      "VS",
      "FA",
      "FA",
      "FA",
      "SR",
      "SR",
      "SR",
      "CO",
      "CO",
      "DM",
      "DM",
      "SE",
      "SE",
      "SE",
      "SM",
      "SM",
      "SM",
      "SV",
      "SV",
      "SV",
      "SV",
      "TA",
      "TD",
      "TE",
      "TI",
      "TM",
      "TS",
      "TV",
      "TV",
      "OI",
      "RELREC",
      "RELSPEC",
      "RELSUB",
      "SUPPQUAL"
    ],
    "example_variables": [
      "AG.STUDYID",
      "AG.VISITDY",
      "AG.AGSTDY",
      "AG.AGENDY",
      "CM.STUDYID"
    ]
  },
  "SEQ": {
    "pattern": "SEQ",
    "common_label": "Sequence Number",
    "common_description": "Sequence number given to ensure uniqueness of subject records within a domain. May be any valid number.",
    "common_role": "Identifier",
    "domains": [
      "AG",
      "CM",
      "EC",
      "EX",
      "ML",
      "PR",
      "SU",
      "AE",
      "BE",
      "CE",
      "DS",
      "DV",
      "HO",
      "MH",
      "BS",
      "CP",
      "CV",
      "DA",
      "DD",
      "EG",
      "FT",
      "GF",
      "GF",
      "IE",
      "IS",
      "LB",
      "MB",
      "MI",
      "MK",
      "MS",
      "NV",
      "OE",
      "PC",
      "PE",
      "PP",
      "QS",
      "RE",
      "RP",
      "RS",
      "SC",
      "SS",
      "TR",
      "TU",
      "UR",
      "VS",
      "FA",
      "SR",
      "CO",
      "SE",
      "SM",
      "TS",
      "OI"
    ],
    "example_variables": [
      "AG.AGSEQ",
      "CM.CMSEQ",
      "EC.ECSEQ",
      "EX.EXSEQ",
      "ML.MLSEQ"
    ]
  },
  "GRPID": {
    "pattern": "GRPID",
    "common_label": "Group ID",
    "common_description": "Used to tie together a block of related records in a single domain for a subject.",
    "common_role": "Identifier",
    "domains": [
      "AG",
      "CM",
      "EC",
      "EX",
      "ML",
      "PR",
      "SU",
      "AE",
      "BE",
      "CE",
      "DS",
      "HO",
      "MH",
      "BS",
      "CP",
      "CV",
      "DA",
      "EG",
      "FT",
      "GF",
      "IS",
      "LB",
      "MB",
      "MI",
      "MK",
      "MS",
      "NV",
      "OE",
      "PC",
      "PE",
      "PP",
      "QS",
      "RE",
      "RP",
      "RS",
      "SC",
      "SS",
      "TR",
      "TU",
      "UR",
      "VS",
      "FA",
      "SR",
      "TS"
    ],
    "example_variables": [
      "AG.AGGRPID",
      "CM.CMGRPID",
      "EC.ECGRPID",
      "EX.EXGRPID",
      "ML.MLGRPID"
    ]
  },
  "REFID": {
    "pattern": "REFID",
    "common_label": "Reference ID",
    "common_description": "Internal or external identifier (e.g., kit number, bottle label, vial identifier).",
    "common_role": "Identifier",
    "domains": [
      "EC",
      "EX",
      "AE",
      "BE",
      "CE",
      "DS",
      "DV",
      "HO",
      "MH",
      "BS",
      "CP",
      "CV",
      "DA",
      "EG",
      "FT",
      "GF",
      "IS",
      "LB",
      "MB",
      "MI",
      "MK",
      "MS",
      "NV",
      "PC",
      "RE",
      "RP",
      "RS",
      "TR",
      "TU",
      "UR",
      "SR",
      "RELSPEC"
    ],
    "example_variables": [
      "EC.ECREFID",
      "EX.EXREFID",
      "AE.AEREFID",
      "BE.BEREFID",
      "CE.CEREFID"
    ]
  },
  "SPID": {
    "pattern": "SPID",
    "common_label": "Sponsor-Defined Identifier",
    "common_description": "Sponsor-defined reference number. May be preprinted on the CRF as an explicit line identifier or defined in the sponsor's operational database. Example: Line number from the procedure or test page.",
    "common_role": "Identifier",
    "domains": [
      "AG",
      "CM",
      "EC",
      "EX",
      "ML",
      "PR",
      "SU",
      "AE",
      "BE",
      "CE",
      "DS",
      "DV",
      "HO",
      "MH",
      "BS",
      "CP",
      "CV",
      "DA",
      "EG",
      "FT",
      "GF",
      "IE",
      "IS",
      "LB",
      "MB",
      "MI",
      "MK",
      "MS",
      "NV",
      "PC",
      "PE",
      "QS",
      "RE",
      "RP",
      "RS",
      "SC",
      "SS",
      "TR",
      "TU",
      "UR",
      "VS",
      "FA",
      "SR"
    ],
    "example_variables": [
      "AG.AGSPID",
      "CM.CMSPID",
      "EC.ECSPID",
      "EX.EXSPID",
      "ML.MLSPID"
    ]
  },
  "STAT": {
    "pattern": "STAT",
    "common_label": "Completion Status",
    "common_description": "Used to indicate that a question about a prespecified agent was not answered. Should be null or have a value of \"NOT DONE\".",
    "common_role": "Record Qualifier",
    "domains": [
      "AG",
      "CM",
      "ML",
      "SU",
      "CE",
      "HO",
      "MH",
      "BS",
      "CP",
      "CV",
      "DA",
      "EG",
      "FT",
      "GF",
      "IS",
      "LB",
      "MB",
      "MI",
      "MK",
      "MS",
      "NV",
      "OE",
      "PC",
      "PE",
      "PP",
      "QS",
      "RE",
      "RP",
      "RS",
      "SC",
      "SS",
      "TR",
      "UR",
      "VS",
      "FA",
      "SR"
    ],
    "example_variables": [
      "AG.AGSTAT",
      "CM.CMSTAT",
      "ML.MLSTAT",
      "SU.SUSTAT",
      "CE.CESTAT"
    ]
  },
  "REASND": {
    "pattern": "REASND",
    "common_label": "Reason Procedure Agent Not Collected",
    "common_description": "Describes the reason a response to a question about the occurrence of a procedure agent was not collected. Used in conjunction with AGSTAT when value is \"NOT DONE\".",
    "common_role": "Record Qualifier",
    "domains": [
      "AG",
      "CM",
      "ML",
      "SU",
      "CE",
      "HO",
      "MH",
      "BS",
      "CP",
      "CV",
      "DA",
      "EG",
      "FT",
      "GF",
      "IS",
      "LB",
      "MB",
      "MI",
      "MK",
      "MS",
      "NV",
      "OE",
      "PC",
      "PE",
      "PP",
      "QS",
      "RE",
      "RP",
      "RS",
      "SC",
      "SS",
      "TR",
      "UR",
      "VS",
      "FA",
      "SR"
    ],
    "example_variables": [
      "AG.AGREASND",
      "CM.CMREASND",
      "ML.MLREASND",
      "SU.SUREASND",
      "CE.CEREASND"
    ]
  },
  "ORRES": {
    "pattern": "ORRES",
    "common_label": "Result or Finding in Original Units",
    "common_description": "Result of the measurement or finding as originally received or collected.",
    "common_role": "Result Qualifier",
    "domains": [
      "BS",
      "BS",
      "CP",
      "CP",
      "CV",
      "CV",
      "DA",
      "DA",
      "DD",
      "EG",
      "EG",
      "FT",
      "FT",
      "GF",
      "GF",
      "IE",
      "IS",
      "IS",
      "LB",
      "LB",
      "MB",
      "MB",
      "MI",
      "MI",
      "MK",
      "MK",
      "MS",
      "MS",
      "NV",
      "NV",
      "OE",
      "OE",
      "PC",
      "PC",
      "PE",
      "PE",
      "PP",
      "PP",
      "QS",
      "QS",
      "RE",
      "RE",
      "RP",
      "RP",
      "RS",
      "RS",
      "SC",
      "SC",
      "SS",
      "TR",
      "TR",
      "TU",
      "UR",
      "UR",
      "VS",
      "VS",
      "FA",
      "FA",
      "SR",
      "SR"
    ],
    "example_variables": [
      "BS.BSORRES",
      "BS.BSORRESU",
      "CP.CPORRES",
      "CP.CPORRESU",
      "CV.CVORRES"
    ]
  },
  "ORRESU": {
    "pattern": "ORRESU",
    "common_label": "Original Units",
    "common_description": "Unit for BSORRES. Examples: mg, mL.",
    "common_role": "Variable Qualifier",
    "domains": [
      "BS",
      "CP",
      "CV",
      "DA",
      "EG",
      "FT",
      "GF",
      "IS",
      "LB",
      "MB",
      "MI",
      "MK",
      "MS",
      "NV",
      "OE",
      "PC",
      "PE",
      "PP",
      "QS",
      "RE",
      "RP",
      "RS",
      "SC",
      "TR",
      "UR",
      "VS",
      "FA",
      "SR"
    ],
    "example_variables": [
      "BS.BSORRESU",
      "CP.CPORRESU",
      "CV.CVORRESU",
      "DA.DAORRESU",
      "EG.EGORRESU"
    ]
  },
  "STRESC": {
    "pattern": "STRESC",
    "common_label": "Character Result/Finding in Std Format",
    "common_description": "Contains the result value for all findings, copied or derived from BSORRES in a standard format or standard units. BSSTRESC should store all results or findings in character format; if results are numeric, they should also be stored in numeric format in BSSTRESN.",
    "common_role": "Result Qualifier",
    "domains": [
      "BS",
      "CP",
      "CV",
      "DA",
      "DD",
      "EG",
      "FT",
      "GF",
      "IE",
      "IS",
      "LB",
      "MB",
      "MI",
      "MK",
      "MS",
      "NV",
      "OE",
      "PC",
      "PE",
      "PP",
      "QS",
      "RE",
      "RP",
      "RS",
      "SC",
      "SS",
      "TR",
      "TU",
      "UR",
      "VS",
      "FA",
      "SR"
    ],
    "example_variables": [
      "BS.BSSTRESC",
      "CP.CPSTRESC",
      "CV.CVSTRESC",
      "DA.DASTRESC",
      "DD.DDSTRESC"
    ]
  },
  "STRESN": {
    "pattern": "STRESN",
    "common_label": "Numeric Result/Finding in Standard Units",
    "common_description": "Used for continuous or numeric results or findings in standard format; copied in numeric format from BSSTRESC. BSSTRESN should store all numeric test results or findings.",
    "common_role": "Result Qualifier",
    "domains": [
      "BS",
      "CP",
      "CV",
      "DA",
      "EG",
      "FT",
      "GF",
      "IS",
      "LB",
      "MB",
      "MI",
      "MK",
      "MS",
      "NV",
      "OE",
      "PC",
      "PP",
      "QS",
      "RE",
      "RP",
      "RS",
      "SC",
      "TR",
      "UR",
      "VS",
      "FA",
      "SR"
    ],
    "example_variables": [
      "BS.BSSTRESN",
      "CP.CPSTRESN",
      "CV.CVSTRESN",
      "DA.DASTRESN",
      "EG.EGSTRESN"
    ]
  },
  "STRESU": {
    "pattern": "STRESU",
    "common_label": "Standard Units",
    "common_description": "Standardized unit used for BSSTRESC and BSSTRESN.",
    "common_role": "Variable Qualifier",
    "domains": [
      "BS",
      "CP",
      "CV",
      "DA",
      "EG",
      "FT",
      "GF",
      "IS",
      "LB",
      "MB",
      "MI",
      "MK",
      "MS",
      "NV",
      "OE",
      "PC",
      "PP",
      "QS",
      "RE",
      "RP",
      "RS",
      "SC",
      "TR",
      "UR",
      "VS",
      "FA",
      "SR"
    ],
    "example_variables": [
      "BS.BSSTRESU",
      "CP.CPSTRESU",
      "CV.CVSTRESU",
      "DA.DASTRESU",
      "EG.EGSTRESU"
    ]
  },
  "TEST": {
    "pattern": "TEST",
    "common_label": "Biospecimen Test Short Name",
    "common_description": "Short character value for BSTEST used as a column name when converting a dataset from a vertical format to a horizontal format. The short value can be up to 8 characters. Examples: VOLUME, RIN.",
    "common_role": "Topic",
    "domains": [
      "BS",
      "BS",
      "CP",
      "CP",
      "CV",
      "CV",
      "DA",
      "DA",
      "DD",
      "DD",
      "EG",
      "EG",
      "FT",
      "FT",
      "GF",
      "GF",
      "IE",
      "IE",
      "IS",
      "IS",
      "LB",
      "LB",
      "MB",
      "MB",
      "MI",
      "MI",
      "MK",
      "MK",
      "MS",
      "MS",
      "NV",
      "NV",
      "OE",
      "OE",
      "PC",
      "PC",
      "PE",
      "PE",
      "PP",
      "PP",
      "QS",
      "QS",
      "RE",
      "RE",
      "RP",
      "RP",
      "RS",
      "RS",
      "SC",
      "SC",
      "SS",
      "SS",
      "TR",
      "TR",
      "TU",
      "TU",
      "UR",
      "UR",
      "VS",
      "VS",
      "FA",
      "FA",
      "SR",
      "SR",
      "TE",
      "TI",
      "TI"
    ],
    "example_variables": [
      "BS.BSTESTCD",
      "BS.BSTEST",
      "CP.CPTESTCD",
      "CP.CPTEST",
      "CV.CVTESTCD"
    ]
  },
  "TESTCD": {
    "pattern": "TESTCD",
    "common_label": "Biospecimen Test Short Name",
    "common_description": "Short character value for BSTEST used as a column name when converting a dataset from a vertical format to a horizontal format. The short value can be up to 8 characters. Examples: VOLUME, RIN.",
    "common_role": "Topic",
    "domains": [
      "BS",
      "CP",
      "CV",
      "DA",
      "DD",
      "EG",
      "FT",
      "GF",
      "IE",
      "IS",
      "LB",
      "MB",
      "MI",
      "MK",
      "MS",
      "NV",
      "OE",
      "PC",
      "PE",
      "PP",
      "QS",
      "RE",
      "RP",
      "RS",
      "SC",
      "SS",
      "TR",
      "TU",
      "UR",
      "VS",
      "FA",
      "SR",
      "TI"
    ],
    "example_variables": [
      "BS.BSTESTCD",
      "CP.CPTESTCD",
      "CV.CVTESTCD",
      "DA.DATESTCD",
      "DD.DDTESTCD"
    ]
  },
  "CAT": {
    "pattern": "CAT",
    "common_label": "Category for Agent",
    "common_description": "Used to define a category of agent. Examples: \"CHALLENGE AGENT\", \"PET TRACER\".",
    "common_role": "Grouping Qualifier",
    "domains": [
      "AG",
      "AG",
      "CM",
      "CM",
      "EC",
      "EC",
      "EX",
      "EX",
      "ML",
      "ML",
      "PR",
      "PR",
      "SU",
      "SU",
      "AE",
      "AE",
      "BE",
      "BE",
      "CE",
      "CE",
      "DS",
      "DS",
      "DV",
      "DV",
      "HO",
      "HO",
      "MH",
      "MH",
      "BS",
      "BS",
      "CP",
      "CP",
      "CV",
      "CV",
      "DA",
      "DA",
      "DD",
      "EG",
      "EG",
      "FT",
      "FT",
      "GF",
      "GF",
      "GF",
      "IE",
      "IE",
      "IS",
      "IS",
      "LB",
      "LB",
      "MB",
      "MB",
      "MB",
      "MI",
      "MI",
      "MI",
      "MK",
      "MK",
      "MS",
      "MS",
      "MS",
      "NV",
      "NV",
      "OE",
      "OE",
      "OE",
      "PC",
      "PC",
      "PE",
      "PE",
      "PP",
      "PP",
      "QS",
      "QS",
      "RE",
      "RE",
      "RP",
      "RP",
      "RS",
      "RS",
      "SC",
      "SC",
      "SS",
      "SS",
      "UR",
      "UR",
      "UR",
      "VS",
      "VS",
      "FA",
      "FA",
      "SR",
      "SR",
      "TI",
      "TI"
    ],
    "example_variables": [
      "AG.AGCAT",
      "AG.AGSCAT",
      "CM.CMCAT",
      "CM.CMSCAT",
      "EC.ECCAT"
    ]
  },
  "SCAT": {
    "pattern": "SCAT",
    "common_label": "Subcategory for Agent",
    "common_description": "Further categorization of agent.",
    "common_role": "Grouping Qualifier",
    "domains": [
      "AG",
      "CM",
      "EC",
      "EX",
      "ML",
      "PR",
      "SU",
      "AE",
      "BE",
      "CE",
      "DS",
      "DS",
      "DV",
      "HO",
      "MH",
      "BS",
      "BS",
      "CP",
      "CV",
      "DA",
      "DD",
      "EG",
      "FT",
      "GF",
      "GF",
      "IE",
      "IS",
      "IS",
      "LB",
      "MB",
      "MB",
      "MI",
      "MI",
      "MK",
      "MS",
      "MS",
      "MS",
      "NV",
      "OE",
      "OE",
      "PC",
      "PE",
      "PP",
      "QS",
      "QS",
      "RE",
      "RP",
      "RS",
      "RS",
      "SC",
      "SS",
      "SS",
      "UR",
      "UR",
      "VS",
      "VS",
      "FA",
      "SR",
      "TI"
    ],
    "example_variables": [
      "AG.AGSCAT",
      "CM.CMSCAT",
      "EC.ECSCAT",
      "EX.EXSCAT",
      "ML.MLSCAT"
    ]
  },
  "TERM": {
    "pattern": "TERM",
    "common_label": "Reported Term for the Adverse Event",
    "common_description": "Verbatim name of the event.",
    "common_role": "Topic",
    "domains": [
      "AE",
      "BE",
      "CE",
      "DS",
      "DV",
      "HO",
      "MH"
    ],
    "example_variables": [
      "AE.AETERM",
      "BE.BETERM",
      "CE.CETERM",
      "DS.DSTERM",
      "DV.DVTERM"
    ]
  },
  "DECOD": {
    "pattern": "DECOD",
    "common_label": "Standardized Agent Name",
    "common_description": "Standardized or dictionary-derived text description of AGTRT or AGMODIFY. Equivalent to the generic medication name in WHO Drug. The sponsor is expected to provide the dictionary name and version used to map the terms utilizing the external codelist element in the Define-XML document. If an intervention term does not have a decode value in the dictionary, then AGDECOD will be left blank.",
    "common_role": "Synonym Qualifier",
    "domains": [
      "AG",
      "CM",
      "PR",
      "SU",
      "AE",
      "BE",
      "CE",
      "DS",
      "DV",
      "HO",
      "MH"
    ],
    "example_variables": [
      "AG.AGDECOD",
      "CM.CMDECOD",
      "PR.PRDECOD",
      "SU.SUDECOD",
      "AE.AEDECOD"
    ]
  }
}