{
  "AG": {
    "variables": [
      "AGCAT",
      "AGCLAS",
      "AGCLASCD",
      "AGDECOD",
      "AGDOSE",
      "AGDOSFRM",
      "AGDOSFRQ",
      "AGDOSTXT",
      "AGDOSU",
      "AGDUR",
      "AGENDTC",
      "AGENDY",
      "AGENRF",
      "AGENRTPT",
      "AGENTPT",
      "AGGRPID",
      "AGLNKGRP",
      "AGLNKID",
      "AGMODIFY",
      "AGOCCUR",
      "AGPRESP",
      "AGREASND",
      "AGROUTE",
      "AGSCAT",
      "AGSEQ",
      "AGSPID",
      "AGSTAT",
      "AGSTDTC",
      "AGSTDY",
      "AGSTRF",
      "AGSTRTPT",
      "AGSTTPT",
      "AGTRT",
      "DOMAIN",
      "EPOCH",
      "STUDYID",
      "TAETORD",
      "USUBJID",
      "VISIT",
      "VISITDY",
      "VISITNUM"
    ],
    "classes": [
      "Interventions"
    ],
    "description": ""
  },
  "CM": {
    "variables": [
      "CMADJ",
      "CMCAT",
      "CMCLAS",
      "CMCLASCD",
      "CMDECOD",
      "CMDOSE",
      "CMDOSFRM",
      "CMDOSFRQ",
      "CMDOSRGM",
      "CMDOSTOT",
      "CMDOSTXT",
      "CMDOSU",
      "CMDUR",
      "CMENDTC",
      "CMENDY",
      "CMENRF",
      "CMENRTPT",
      "CMENTPT",
      "CMGRPID",
      "CMINDC",
      "CMMODIFY",
      "CMOCCUR",
      "CMPRESP",
      "CMREASND",
      "CMROUTE",
      "CMRSDISC",
      "CMSCAT",
      "CMSEQ",
      "CMSPID",
      "CMSTAT",
      "CMSTDTC",
      "CMSTDY",
      "CMSTRF",
      "CMSTRTPT",
      "CMSTTPT",
      "CMTRT",
      "DOMAIN",
      "EPOCH",
      "STUDYID",
      "TAETORD",
      "USUBJID"
    ],
    "classes": [
      "Interventions"
    ],
    "description": ""
  },
  "EC": {
    "variables": [
      "DOMAIN",
      "ECADJ",
      "ECCAT",
      "ECDIR",
      "ECDOSE",
      "ECDOSFRM",
      "ECDOSFRQ",
      "ECDOSRGM",
      "ECDOSTOT",
      "ECDOSTXT",
      "ECDOSU",
      "ECDUR",
      "ECELTM",
      "ECENDTC",
      "ECENDY",
      "ECFAST",
      "ECGRPID",
      "ECLAT",
      "ECLNKGRP",
      "ECLNKID",
      "ECLOC",
      "ECLOT",
      "ECMOOD",
      "ECOCCUR",
      "ECPORTOT",
      "ECPRESP",
      "ECPSTRG",
      "ECPSTRGU",
      "ECREASOC",
      "ECREFID",
      "ECRFTDTC",
      "ECROUTE",
      "ECSCAT",
      "ECSEQ",
      "ECSPID",
      "ECSTDTC",
      "ECSTDY",
      "ECTPT",
      "ECTPTNUM",
      "ECTPTREF",
      "ECTRT",
      "EPOCH",
      "STUDYID",
      "TAETORD",
      "USUBJID"
    ],
    "classes": [
      "Interventions"
    ],
    "description": ""
  },
  "EX": {
    "variables": [
      "DOMAIN",
      "EPOCH",
      "EXADJ",
      "EXCAT",
      "EXDIR",
      "EXDOSE",
      "EXDOSFRM",
      "EXDOSFRQ",
      "EXDOSRGM",
      "EXDOSTXT",
      "EXDOSU",
      "EXDUR",
      "EXELTM",
      "EXENDTC",
      "EXENDY",
      "EXFAST",
      "EXGRPID",
      "EXLAT",
      "EXLNKGRP",
      "EXLNKID",
      "EXLOC",
      "EXLOT",
      "EXREFID",
      "EXRFTDTC",
      "EXROUTE",
      "EXSCAT",
      "EXSEQ",
      "EXSPID",
      "EXSTDTC",
      "EXSTDY",
      "EXTPT",
      "EXTPTNUM",
      "EXTPTREF",
      "EXTRT",
      "STUDYID",
      "TAETORD",
      "USUBJID"
    ],
    "classes": [
      "Interventions"
    ],
    "description": ""
  },
  "ML": {
    "variables": [
      "DOMAIN",
      "EPOCH",
      "MIDS",
      "MIDSDTC",
      "MLCAT",
      "MLDOSE",
      "MLDOSFRM",
      "MLDOSTXT",
      "MLDOSU",
      "MLDTC",
      "MLDUR",
      "MLDY",
      "MLELTM",
      "MLENDTC",
      "MLENDY",
      "MLGRPID",
      "MLOCCUR",
      "MLPRESP",
      "MLREASND",
      "MLRFTDTC",
      "MLSCAT",
      "MLSEQ",
      "MLSPID",
      "MLSTAT",
      "MLSTDTC",
      "MLSTDY",
      "MLTPT",
      "MLTPTNUM",
      "MLTPTREF",
      "MLTRT",
      "RELMIDS",
      "STUDYID",
      "TAETORD",
      "USUBJID",
      "VISIT",
      "VISITDY",
      "VISITNUM"
    ],
    "classes": [
      "Interventions"
    ],
    "description": ""
  },
  "PR": {
    "variables": [
      "DOMAIN",
      "EPOCH",
      "PRCAT",
      "PRDECOD",
      "PRDIR",
      "PRDOSE",
      "PRDOSFRM",
      "PRDOSFRQ",
      "PRDOSRGM",
      "PRDOSTXT",
      "PRDOSU",
      "PRDUR",
      "PRELTM",
      "PRENDTC",
      "PRENDY",
      "PRENRTPT",
      "PRENTPT",
      "PRGRPID",
      "PRINDC",
      "PRLAT",
      "PRLNKGRP",
      "PRLNKID",
      "PRLOC",
      "PROCCUR",
      "PRPORTOT",
      "PRPRESP",
      "PRRFTDTC",
      "PRROUTE",
      "PRSCAT",
      "PRSEQ",
      "PRSPID",
      "PRSTDTC",
      "PRSTDY",
      "PRSTRTPT",
      "PRSTTPT",
      "PRTPT",
      "PRTPTNUM",
      "PRTPTREF",
      "PRTRT",
      "STUDYID",
      "TAETORD",
      "USUBJID",
      "VISIT",
      "VISITDY",
      "VISITNUM"
    ],
    "classes": [
      "Interventions"
    ],
    "description": ""
  },
  "SU": {
    "variables": [
      "DOMAIN",
      "EPOCH",
      "STUDYID",
      "SUCAT",
      "SUCLAS",
      "SUCLASCD",
      "SUDECOD",
      "SUDOSE",
      "SUDOSFRM",
      "SUDOSFRQ",
      "SUDOSTOT",
      "SUDOSTXT",
      "SUDOSU",
      "SUDUR",
      "SUENDTC",
      "SUENDY",
      "SUENRF",
      "SUENRTPT",
      "SUENTPT",
      "SUGRPID",
      "SUMODIFY",
      "SUOCCUR",
      "SUPRESP",
      "SUREASND",
      "SUROUTE",
      "SUSCAT",
      "SUSEQ",
      "SUSPID",
      "SUSTAT",
      "SUSTDTC",
      "SUSTDY",
      "SUSTRF",
      "SUSTRTPT",
      "SUSTTPT",
      "SUTRT",
      "TAETORD",
      "USUBJID"
    ],
    "classes": [
      "Interventions"
    ],
    "description": ""
  },
  "AE": {
    "variables": [
      "AEACN",
      "AEACNDEV",
      "AEACNOTH",
      "AEBDSYCD",
      "AEBODSYS",
      "AECAT",
      "AECONTRT",
      "AEDECOD",
      "AEDUR",
      "AEENDTC",
      "AEENDY",
      "AEENRF",
      "AEENRTPT",
      "AEENTPT",
      "AEGRPID",
      "AEHLGT",
      "AEHLGTCD",
      "AEHLT",
      "AEHLTCD",
      "AELLT",
      "AELLTCD",
      "AELOC",
      "AEMODIFY",
      "AEOUT",
      "AEPATT",
      "AEPRESP",
      "AEPTCD",
      "AEREFID",
      "AEREL",
      "AERELNST",
      "AERLDEV",
      "AERLPRC",
      "AERLPRT",
      "AESCAN",
      "AESCAT",
      "AESCONG",
      "AESDISAB",
      "AESDTH",
      "AESEQ",
      "AESER",
      "AESEV",
      "AESHOSP",
      "AESINTV",
      "AESLIFE",
      "AESMIE",
      "AESOC",
      "AESOCCD",
      "AESOD",
      "AESPID",
      "AESTDTC",
      "AESTDY",
      "AETERM",
      "AETOXGR",
      "AEUNANT",
      "DOMAIN",
      "EPOCH",
      "SPDEVID",
      "STUDYID",
      "TAETORD",
      "USUBJID"
    ],
    "classes": [
      "Events"
    ],
    "description": ""
  },
  "BE": {
    "variables": [
      "BECAT",
      "BEDECOD",
      "BEDTC",
      "BEDUR",
      "BEENDTC",
      "BEENDY",
      "BEGRPID",
      "BELOC",
      "BEMODIFY",
      "BEPARTY",
      "BEPRTYID",
      "BEREFID",
      "BESCAT",
      "BESEQ",
      "BESPID",
      "BESTDTC",
      "BESTDY",
      "BETERM",
      "DOMAIN",
      "SPDEVID",
      "STUDYID",
      "USUBJID",
      "VISIT",
      "VISITDY",
      "VISITNUM"
    ],
    "classes": [
      "Events"
    ],
    "description": ""
  },
  "CE": {
    "variables": [
      "CEBODSYS",
      "CECAT",
      "CEDECOD",
      "CEDTC",
      "CEDY",
      "CEENDTC",
      "CEENDY",
      "CEENRF",
      "CEENRTPT",
      "CEENTPT",
      "CEGRPID",
      "CEOCCUR",
      "CEPRESP",
      "CEREASND",
      "CEREFID",
      "CESCAT",
      "CESEQ",
      "CESEV",
      "CESPID",
      "CESTAT",
      "CESTDTC",
      "CESTDY",
      "CESTRF",
      "CESTRTPT",
      "CESTTPT",
      "CETERM",
      "CETOXGR",
      "DOMAIN",
      "EPOCH",
      "STUDYID",
      "TAETORD",
      "USUBJID"
    ],
    "classes": [
      "Events"
    ],
    "description": ""
  },
  "DS": {
    "variables": [
      "DOMAIN",
      "DSCAT",
      "DSDECOD",
      "DSDTC",
      "DSDY",
      "DSGRPID",
      "DSREFID",
      "DSSCAT",
      "DSSEQ",
      "DSSPID",
      "DSSTDTC",
      "DSSTDY",
      "DSTERM",
      "EPOCH",
      "STUDYID",
      "USUBJID"
    ],
    "classes": [
      "Events"
    ],
    "description": ""
  },
  "DV": {
    "variables": [
      "DOMAIN",
      "DVCAT",
      "DVDECOD",
      "DVENDTC",
      "DVENDY",
      "DVREFID",
      "DVSCAT",
      "DVSEQ",
      "DVSPID",
      "DVSTDTC",
      "DVSTDY",
      "DVTERM",
      "EPOCH",
      "STUDYID",
      "TAETORD",
      "USUBJID"
    ],
    "classes": [
      "Events"
    ],
    "description": ""
  },
  "HO": {
    "variables": [
      "DOMAIN",
      "EPOCH",
      "HOCAT",
      "HODECOD",
      "HODTC",
      "HODUR",
      "HODY",
      "HOENDTC",
      "HOENDY",
      "HOENRTPT",
      "HOENTPT",
      "HOGRPID",
      "HOOCCUR",
      "HOPRESP",
      "HOREASND",
      "HOREFID",
      "HOSCAT",
      "HOSEQ",
      "HOSPID",
      "HOSTAT",
      "HOSTDTC",
      "HOSTDY",
      "HOSTRTPT",
      "HOSTTPT",
      "HOTERM",
      "STUDYID",
      "TAETORD",
      "USUBJID"
    ],
    "classes": [
      "Events"
    ],
    "description": ""
  },
  "MH": {
    "variables": [
      "DOMAIN",
      "EPOCH",
      "MHBODSYS",
      "MHCAT",
      "MHDECOD",
      "MHDTC",
      "MHDY",
      "MHENDTC",
      "MHENRF",
      "MHENRTPT",
      "MHENTPT",
      "MHEVDTYP",
      "MHGRPID",
      "MHMODIFY",
      "MHOCCUR",
      "MHPRESP",
      "MHREASND",
      "MHREFID",
      "MHSCAT",
      "MHSEQ",
      "MHSPID",
      "MHSTAT",
      "MHSTDTC",
      "MHTERM",
      "STUDYID",
      "TAETORD",
      "USUBJID"
    ],
    "classes": [
      "Events"
    ],
    "description": ""
  },
  "BS": {
    "variables": [
      "BSANTREG",
      "BSBLFL",
      "BSCAT",
      "BSDTC",
      "BSDY",
      "BSELTM",
      "BSGRPID",
      "BSMETHOD",
      "BSNAM",
      "BSORRES",
      "BSORRESU",
      "BSREASND",
      "BSREFID",
      "BSRFTDTC",
      "BSSCAT",
      "BSSEQ",
      "BSSPCCND",
      "BSSPEC",
      "BSSPID",
      "BSSTAT",
      "BSSTRESC",
      "BSSTRESN",
      "BSSTRESU",
      "BSTEST",
      "BSTESTCD",
      "BSTPT",
      "BSTPTNUM",
      "BSTPTREF",
      "DOMAIN",
      "SPDEVID",
      "STUDYID",
      "USUBJID",
      "VISIT",
      "VISITDY",
      "VISITNUM"
    ],
    "classes": [
      "Findings"
    ],
    "description": ""
  },
  "CP": {
    "variables": [
      "CPABCLID",
      "CPANMETH",
      "CPBDAGNT",
      "CPBLFL",
      "CPCAT",
      "CPCELSTA",
      "CPCLSIG",
      "CPCNDAGT",
      "CPCOLSRT",
      "CPCSMRKS",
      "CPDRVFL",
      "CPDTC",
      "CPDY",
      "CPELTM",
      "CPGATDEF",
      "CPGATE",
      "CPGRPID",
      "CPLNKGRP",
      "CPLNKID",
      "CPLOBXFL",
      "CPLOINC",
      "CPMETHOD",
      "CPMRKSTR",
      "CPNAM",
      "CPNRIND",
      "CPORNRHI",
      "CPORNRLO",
      "CPORRES",
      "CPORRESU",
      "CPREASND",
      "CPREFID",
      "CPRESSCL",
      "CPRESTYP",
      "CPRFTDTC",
      "CPSBMRKS",
      "CPSCAT",
      "CPSEQ",
      "CPSPCCND",
      "CPSPEC",
      "CPSPID",
      "CPSPTSTD",
      "CPSTAT",
      "CPSTNRHI",
      "CPSTNRLO",
      "CPSTRESC",
      "CPSTRESN",
      "CPSTRESU",
      "CPTEST",
      "CPTESTCD",
      "CPTPT",
      "CPTPTNUM",
      "CPTPTREF",
      "CPTSTCND",
      "CPTSTPNL",
      "DOMAIN",
      "EPOCH",
      "STUDYID",
      "TAETORD",
      "USUBJID",
      "VISIT",
      "VISITDY",
      "VISITNUM"
    ],
    "classes": [
      "Findings"
    ],
    "description": ""
  },
  "CV": {
    "variables": [
      "CVBLFL",
      "CVCAT",
      "CVDIR",
      "CVDRVFL",
      "CVDTC",
      "CVDY",
      "CVELTM",
      "CVEVAL",
      "CVEVALID",
      "CVGRPID",
      "CVLAT",
      "CVLNKGRP",
      "CVLNKID",
      "CVLOBXFL",
      "CVLOC",
      "CVMETHOD",
      "CVORRES",
      "CVORRESU",
      "CVPOS",
      "CVREASND",
      "CVREFID",
      "CVRFTDTC",
      "CVSCAT",
      "CVSEQ",
      "CVSPID",
      "CVSTAT",
      "CVSTRESC",
      "CVSTRESN",
      "CVSTRESU",
      "CVTEST",
      "CVTESTCD",
      "CVTPT",
      "CVTPTNUM",
      "CVTPTREF",
      "DOMAIN",
      "EPOCH",
      "STUDYID",
      "TAETORD",
      "USUBJID",
      "VISIT",
      "VISITDY",
      "VISITNUM"
    ],
    "classes": [
      "Findings"
    ],
    "description": ""
  },
  "DA": {
    "variables": [
      "DACAT",
      "DADTC",
      "DADY",
      "DAGRPID",
      "DALNKGRP",
      "DALNKID",
      "DAORRES",
      "DAORRESU",
      "DAREASND",
      "DAREFID",
      "DASCAT",
      "DASEQ",
      "DASPID",
      "DASTAT",
      "DASTRESC",
      "DASTRESN",
      "DASTRESU",
      "DATEST",
      "DATESTCD",
      "DOMAIN",
      "EPOCH",
      "STUDYID",
      "TAETORD",
      "USUBJID",
      "VISIT",
      "VISITDY",
      "VISITNUM"
    ],
    "classes": [
      "Findings"
    ],
    "description": ""
  },
  "DD": {
    "variables": [
      "DDDTC",
      "DDDY",
      "DDEVAL",
      "DDORRES",
      "DDRESCAT",
      "DDSEQ",
      "DDSTRESC",
      "DDTEST",
      "DDTESTCD",
      "DOMAIN",
      "STUDYID",
      "USUBJID"
    ],
    "classes": [
      "Findings"
    ],
    "description": ""
  },
  "EG": {
    "variables": [
      "DOMAIN",
      "EGBEATNO",
      "EGBLFL",
      "EGCAT",
      "EGCLSIG",
      "EGDRVFL",
      "EGDTC",
      "EGDY",
      "EGELTM",
      "EGEVAL",
      "EGEVALID",
      "EGGRPID",
      "EGLEAD",
      "EGLOBXFL",
      "EGMETHOD",
      "EGNAM",
      "EGORRES",
      "EGORRESU",
      "EGPOS",
      "EGREASND",
      "EGREFID",
      "EGREPNUM",
      "EGRFTDTC",
      "EGSCAT",
      "EGSEQ",
      "EGSPID",
      "EGSTAT",
      "EGSTRESC",
      "EGSTRESN",
      "EGSTRESU",
      "EGTEST",
      "EGTESTCD",
      "EGTPT",
      "EGTPTNUM",
      "EGTPTREF",
      "EGXFN",
      "EPOCH",
      "SPDEVID",
      "STUDYID",
      "TAETORD",
      "USUBJID",
      "VISIT",
      "VISITDY",
      "VISITNUM"
    ],
    "classes": [
      "Findings"
    ],
    "description": ""
  },
  "FT": {
    "variables": [
      "DOMAIN",
      "EPOCH",
      "FTBLFL",
      "FTCAT",
      "FTDRVFL",
      "FTDTC",
      "FTDY",
      "FTELTM",
      "FTGRPID",
      "FTLOBXFL",
      "FTMETHOD",
      "FTNAM",
      "FTORRES",
      "FTORRESU",
      "FTPOS",
      "FTREASND",
      "FTREFID",
      "FTREPNUM",
      "FTRFTDTC",
      "FTSCAT",
      "FTSEQ",
      "FTSPID",
      "FTSTAT",
      "FTSTRESC",
      "FTSTRESN",
      "FTSTRESU",
      "FTTEST",
      "FTTESTCD",
      "FTTPT",
      "FTTPTNUM",
      "FTTPTREF",
      "FTXFN",
      "STUDYID",
      "TAETORD",
      "USUBJID",
      "VISIT",
      "VISITDY",
      "VISITNUM"
    ],
    "classes": [
      "Findings"
    ],
    "description": ""
  },
  "GF": {
    "variables": [
      "DOMAIN",
      "GFANMETH",
      "GFBLFL",
      "GFCAT",
      "GFCHROM",
      "GFCOPYID",
      "GFDRVFL",
      "GFDTC",
      "GFDY",
      "GFELTM",
      "GFGENLOC",
      "GFGENREF",
      "GFGENSR",
      "GFGRPID",
      "GFINHERT",
      "GFLLOQ",
      "GFLNKGRP",
      "GFLNKID",
      "GFMETHOD",
      "GFNAM",
      "GFORREF",
      "GFORRES",
      "GFORRESU",
      "GFPVRID",
      "GFREASND",
      "GFREFID",
      "GFREPNUM",
      "GFRESCAT",
      "GFRFTDTC",
      "GFRUNID",
      "GFSCAT",
      "GFSEQ",
      "GFSEQID",
      "GFSPEC",
      "GFSPID",
      "GFSTAT",
      "GFSTREFC",
      "GFSTREFN",
      "GFSTRESC",
      "GFSTRESN",
      "GFSTRESU",
      "GFSYM",
      "GFSYMTYP",
      "GFTEST",
      "GFTESTCD",
      "GFTPT",
      "GFTPTNUM",
      "GFTPTREF",
      "GFTSTDTL",
      "GFXFN",
      "NHOID",
      "SPDEVID",
      "STUDYID",
      "USUBJID",
      "VISIT",
      "VISITDY",
      "VISITNUM"
    ],
    "classes": [
      "Findings"
    ],
    "description": ""
  },
  "IE": {
    "variables": [
      "DOMAIN",
      "EPOCH",
      "IECAT",
      "IEDTC",
      "IEDY",
      "IEORRES",
      "IESCAT",
      "IESEQ",
      "IESPID",
      "IESTRESC",
      "IETEST",
      "IETESTCD",
      "STUDYID",
      "TAETORD",
      "USUBJID",
      "VISIT",
      "VISITDY",
      "VISITNUM"
    ],
    "classes": [
      "Findings"
    ],
    "description": ""
  },
  "IS": {
    "variables": [
      "DOMAIN",
      "EPOCH",
      "ISBDAGNT",
      "ISBLFL",
      "ISCAT",
      "ISCNDAGT",
      "ISDRVFL",
      "ISDTC",
      "ISDY",
      "ISELTM",
      "ISENDTC",
      "ISENDY",
      "ISGRPID",
      "ISLLOQ",
      "ISLOBXFL",
      "ISMETHOD",
      "ISMSCBCE",
      "ISNAM",
      "ISNRIND",
      "ISORNRHI",
      "ISORNRLO",
      "ISORRES",
      "ISORRESU",
      "ISREASND",
      "ISREFID",
      "ISRFTDTC",
      "ISSCAT",
      "ISSEQ",
      "ISSPCCND",
      "ISSPCUFL",
      "ISSPEC",
      "ISSPID",
      "ISSTAT",
      "ISSTNRC",
      "ISSTNRHI",
      "ISSTNRLO",
      "ISSTRESC",
      "ISSTRESN",
      "ISSTRESU",
      "ISTEST",
      "ISTESTCD",
      "ISTPT",
      "ISTPTNUM",
      "ISTPTREF",
      "ISTSTCND",
      "ISTSTDTL",
      "ISTSTOPO",
      "NHOID",
      "STUDYID",
      "TAETORD",
      "USUBJID",
      "VISIT",
      "VISITDY",
      "VISITNUM"
    ],
    "classes": [
      "Findings"
    ],
    "description": ""
  },
  "LB": {
    "variables": [
      "DOMAIN",
      "EPOCH",
      "LBANMETH",
      "LBBDAGNT",
      "LBBLFL",
      "LBCAT",
      "LBCLSIG",
      "LBCOLSRT",
      "LBDRVFL",
      "LBDTC",
      "LBDY",
      "LBELTM",
      "LBENDTC",
      "LBENDY",
      "LBFAST",
      "LBGRPID",
      "LBLLOD",
      "LBLOBXFL",
      "LBLOINC",
      "LBMETHOD",
      "LBNAM",
      "LBNRIND",
      "LBORNRHI",
      "LBORNRLO",
      "LBORRES",
      "LBORRESU",
      "LBPDUR",
      "LBPTFL",
      "LBREASND",
      "LBREFID",
      "LBRESSCL",
      "LBRESTYP",
      "LBRFTDTC",
      "LBSCAT",
      "LBSEQ",
      "LBSPCCND",
      "LBSPCUFL",
      "LBSPEC",
      "LBSPID",
      "LBSTAT",
      "LBSTNRC",
      "LBSTNRHI",
      "LBSTNRLO",
      "LBSTRESC",
      "LBSTRESN",
      "LBSTRESU",
      "LBTEST",
      "LBTESTCD",
      "LBTMTHSN",
      "LBTOX",
      "LBTOXGR",
      "LBTPT",
      "LBTPTNUM",
      "LBTPTREF",
      "LBTSTCND",
      "LBTSTOPO",
      "STUDYID",
      "TAETORD",
      "USUBJID",
      "VISIT",
      "VISITDY",
      "VISITNUM"
    ],
    "classes": [
      "Findings"
    ],
    "description": ""
  },
  "MB": {
    "variables": [
      "DOMAIN",
      "EPOCH",
      "FOCID",
      "MBBLFL",
      "MBCAT",
      "MBDIR",
      "MBDRVFL",
      "MBDTC",
      "MBDY",
      "MBELTM",
      "MBFAST",
      "MBGRPID",
      "MBLAT",
      "MBLNKGRP",
      "MBLNKID",
      "MBLOBXFL",
      "MBLOC",
      "MBLOINC",
      "MBMETHOD",
      "MBNAM",
      "MBORRES",
      "MBORRESU",
      "MBREASND",
      "MBREFID",
      "MBRESCAT",
      "MBRFTDTC",
      "MBSCAT",
      "MBSEQ",
      "MBSPCCND",
      "MBSPEC",
      "MBSPID",
      "MBSTAT",
      "MBSTRESC",
      "MBSTRESN",
      "MBSTRESU",
      "MBTEST",
      "MBTESTCD",
      "MBTPT",
      "MBTPTNUM",
      "MBTPTREF",
      "MBTSTDTL",
      "STUDYID",
      "TAETORD",
      "USUBJID",
      "VISIT",
      "VISITDY",
      "VISITNUM"
    ],
    "classes": [
      "Findings"
    ],
    "description": ""
  },
  "MI": {
    "variables": [
      "DOMAIN",
      "EPOCH",
      "MIBLFL",
      "MICAT",
      "MIDIR",
      "MIDTC",
      "MIDY",
      "MIEVAL",
      "MIGRPID",
      "MILAT",
      "MILOBXFL",
      "MILOC",
      "MIMETHOD",
      "MINAM",
      "MIORRES",
      "MIORRESU",
      "MIREASND",
      "MIREFID",
      "MIRESCAT",
      "MISCAT",
      "MISEQ",
      "MISPCCND",
      "MISPEC",
      "MISPID",
      "MISTAT",
      "MISTRESC",
      "MISTRESN",
      "MISTRESU",
      "MITEST",
      "MITESTCD",
      "MITSTDTL",
      "STUDYID",
      "TAETORD",
      "USUBJID",
      "VISIT",
      "VISITDY",
      "VISITNUM"
    ],
    "classes": [
      "Findings"
    ],
    "description": ""
  },
  "MK": {
    "variables": [
      "DOMAIN",
      "EPOCH",
      "MKBLFL",
      "MKCAT",
      "MKDIR",
      "MKDRVFL",
      "MKDTC",
      "MKDY",
      "MKELTM",
      "MKEVAL",
      "MKEVALID",
      "MKGRPID",
      "MKLAT",
      "MKLNKGRP",
      "MKLNKID",
      "MKLOBXFL",
      "MKLOC",
      "MKMETHOD",
      "MKORRES",
      "MKORRESU",
      "MKPOS",
      "MKREASND",
      "MKREFID",
      "MKRFTDTC",
      "MKSCAT",
      "MKSEQ",
      "MKSPID",
      "MKSTAT",
      "MKSTRESC",
      "MKSTRESN",
      "MKSTRESU",
      "MKTEST",
      "MKTESTCD",
      "MKTPT",
      "MKTPTNUM",
      "MKTPTREF",
      "STUDYID",
      "TAETORD",
      "USUBJID",
      "VISIT",
      "VISITDY",
      "VISITNUM"
    ],
    "classes": [
      "Findings"
    ],
    "description": ""
  },
  "MS": {
    "variables": [
      "DOMAIN",
      "EPOCH",
      "MSACPTFL",
      "MSAGENT",
      "MSANMETH",
      "MSBLFL",
      "MSCAT",
      "MSCONC",
      "MSCONCU",
      "MSDIR",
      "MSDRVFL",
      "MSDTC",
      "MSDUR",
      "MSDY",
      "MSELTM",
      "MSEVAL",
      "MSEVALID",
      "MSEVINTX",
      "MSEVLINT",
      "MSFAST",
      "MSGRPID",
      "MSLAT",
      "MSLLOQ",
      "MSLNKID",
      "MSLOBXFL",
      "MSLOC",
      "MSLOINC",
      "MSMETHOD",
      "MSNAM",
      "MSNRIND",
      "MSORRES",
      "MSORRESU",
      "MSREASND",
      "MSREFID",
      "MSREPNUM",
      "MSRESCAT",
      "MSRFTDTC",
      "MSSCAT",
      "MSSEQ",
      "MSSPCCND",
      "MSSPEC",
      "MSSPID",
      "MSSTAT",
      "MSSTRESC",
      "MSSTRESN",
      "MSSTRESU",
      "MSTEST",
      "MSTESTCD",
      "MSTPT",
      "MSTPTNUM",
      "MSTPTREF",
      "MSTSTDTL",
      "MSULOQ",
      "MSXFN",
      "NHOID",
      "STUDYID",
      "TAETORD",
      "USUBJID",
      "VISIT",
      "VISITDY",
      "VISITNUM"
    ],
    "classes": [
      "Findings"
    ],
    "description": ""
  },
  "NV": {
    "variables": [
      "DOMAIN",
      "EPOCH",
      "FOCID",
      "NVBLFL",
      "NVCAT",
      "NVDIR",
      "NVDRVFL",
      "NVDTC",
      "NVDY",
      "NVELTM",
      "NVEVAL",
      "NVEVALID",
      "NVGRPID",
      "NVLAT",
      "NVLNKGRP",
      "NVLNKID",
      "NVLOBXFL",
      "NVLOC",
      "NVMETHOD",
      "NVORRES",
      "NVORRESU",
      "NVREASND",
      "NVREFID",
      "NVRFTDTC",
      "NVSCAT",
      "NVSEQ",
      "NVSPID",
      "NVSTAT",
      "NVSTRESC",
      "NVSTRESN",
      "NVSTRESU",
      "NVTEST",
      "NVTESTCD",
      "NVTPT",
      "NVTPTNUM",
      "NVTPTREF",
      "STUDYID",
      "TAETORD",
      "USUBJID",
      "VISIT",
      "VISITDY",
      "VISITNUM"
    ],
    "classes": [
      "Findings"
    ],
    "description": ""
  },
  "OE": {
    "variables": [
      "DOMAIN",
      "EPOCH",
      "FOCID",
      "OEACPTFL",
      "OEBLFL",
      "OECAT",
      "OEDIR",
      "OEDRVFL",
      "OEDTC",
      "OEDY",
      "OEELTM",
      "OEEVAL",
      "OEEVALID",
      "OEGRPID",
      "OELAT",
      "OELNKGRP",
      "OELNKID",
      "OELOBXFL",
      "OELOC",
      "OEMETHOD",
      "OENRIND",
      "OEORNRHI",
      "OEORNRLO",
      "OEORRES",
      "OEORRESU",
      "OEPORTOT",
      "OEREASND",
      "OEREPNUM",
      "OERESCAT",
      "OERFTDTC",
      "OESCAT",
      "OESEQ",
      "OESTAT",
      "OESTNRC",
      "OESTNRHI",
      "OESTNRLO",
      "OESTRESC",
      "OESTRESN",
      "OESTRESU",
      "OETEST",
      "OETESTCD",
      "OETPT",
      "OETPTNUM",
      "OETPTREF",
      "OETSTDTL",
      "OEXFN",
      "STUDYID",
      "TAETORD",
      "USUBJID",
      "VISIT",
      "VISITDY",
      "VISITNUM"
    ],
    "classes": [
      "Findings"
    ],
    "description": ""
  },
  "PC": {
    "variables": [
      "DOMAIN",
      "EPOCH",
      "PCCAT",
      "PCDRVFL",
      "PCDTC",
      "PCDY",
      "PCELTM",
      "PCENDTC",
      "PCENDY",
      "PCEVLINT",
      "PCFAST",
      "PCGRPID",
      "PCLLOQ",
      "PCMETHOD",
      "PCNAM",
      "PCORRES",
      "PCORRESU",
      "PCREASND",
      "PCREFID",
      "PCRFTDTC",
      "PCSCAT",
      "PCSEQ",
      "PCSPCCND",
      "PCSPEC",
      "PCSPID",
      "PCSTAT",
      "PCSTRESC",
      "PCSTRESN",
      "PCSTRESU",
      "PCTEST",
      "PCTESTCD",
      "PCTPT",
      "PCTPTNUM",
      "PCTPTREF",
      "PCULOQ",
      "STUDYID",
      "TAETORD",
      "USUBJID",
      "VISIT",
      "VISITDY",
      "VISITNUM"
    ],
    "classes": [
      "Findings"
    ],
    "description": ""
  },
  "PE": {
    "variables": [
      "DOMAIN",
      "EPOCH",
      "PEBLFL",
      "PEBODSYS",
      "PECAT",
      "PEDTC",
      "PEDY",
      "PEEVAL",
      "PEGRPID",
      "PELAT",
      "PELOBXFL",
      "PELOC",
      "PEMETHOD",
      "PEMODIFY",
      "PEORRES",
      "PEORRESU",
      "PEREASND",
      "PESCAT",
      "PESEQ",
      "PESPID",
      "PESTAT",
      "PESTRESC",
      "PETEST",
      "PETESTCD",
      "STUDYID",
      "TAETORD",
      "USUBJID",
      "VISIT",
      "VISITDY",
      "VISITNUM"
    ],
    "classes": [
      "Findings"
    ],
    "description": ""
  },
  "PP": {
    "variables": [
      "DOMAIN",
      "EPOCH",
      "PPANMETH",
      "PPCAT",
      "PPDTC",
      "PPDY",
      "PPENINT",
      "PPGRPID",
      "PPORRES",
      "PPORRESU",
      "PPREASND",
      "PPRFTDTC",
      "PPSCAT",
      "PPSEQ",
      "PPSPEC",
      "PPSTAT",
      "PPSTINT",
      "PPSTRESC",
      "PPSTRESN",
      "PPSTRESU",
      "PPTEST",
      "PPTESTCD",
      "PPTPTREF",
      "STUDYID",
      "TAETORD",
      "USUBJID"
    ],
    "classes": [
      "Findings"
    ],
    "description": ""
  },
  "QS": {
    "variables": [
      "DOMAIN",
      "EPOCH",
      "QSBLFL",
      "QSCAT",
      "QSDRVFL",
      "QSDTC",
      "QSDY",
      "QSELTM",
      "QSEVINTX",
      "QSEVLINT",
      "QSGRPID",
      "QSLOBXFL",
      "QSMETHOD",
      "QSORRES",
      "QSORRESU",
      "QSREASND",
      "QSRFTDTC",
      "QSSCAT",
      "QSSEQ",
      "QSSPID",
      "QSSTAT",
      "QSSTRESC",
      "QSSTRESN",
      "QSSTRESU",
      "QSTEST",
      "QSTESTCD",
      "QSTPT",
      "QSTPTNUM",
      "QSTPTREF",
      "STUDYID",
      "TAETORD",
      "USUBJID",
      "VISIT",
      "VISITDY",
      "VISITNUM"
    ],
    "classes": [
      "Findings"
    ],
    "description": ""
  },
  "RE": {
    "variables": [
      "DOMAIN",
      "EPOCH",
      "REBLFL",
      "RECAT",
      "REDIR",
      "REDRVFL",
      "REDTC",
      "REDY",
      "REELTM",
      "REEVAL",
      "REEVALID",
      "REGRPID",
      "RELAT",
      "RELNKGRP",
      "RELNKID",
      "RELOBXFL",
      "RELOC",
      "REMETHOD",
      "REORREF",
      "REORRES",
      "REORRESU",
      "REPOS",
      "REREASND",
      "REREFID",
      "REREPNUM",
      "RERFTDTC",
      "RESCAT",
      "RESEQ",
      "RESPID",
      "RESTAT",
      "RESTREFC",
      "RESTREFN",
      "RESTRESC",
      "RESTRESN",
      "RESTRESU",
      "RETEST",
      "RETESTCD",
      "RETPT",
      "RETPTNUM",
      "RETPTREF",
      "SPDEVID",
      "STUDYID",
      "TAETORD",
      "USUBJID",
      "VISIT",
      "VISITDY",
      "VISITNUM"
    ],
    "classes": [
      "Findings"
    ],
    "description": ""
  },
  "RP": {
    "variables": [
      "DOMAIN",
      "EPOCH",
      "RPBLFL",
      "RPCAT",
      "RPDRVFL",
      "RPDTC",
      "RPDUR",
      "RPDY",
      "RPELTM",
      "RPGRPID",
      "RPLNKGRP",
      "RPLNKID",
      "RPLOBXFL",
      "RPORRES",
      "RPORRESU",
      "RPREASND",
      "RPREFID",
      "RPRFTDTC",
      "RPSCAT",
      "RPSEQ",
      "RPSPID",
      "RPSTAT",
      "RPSTRESC",
      "RPSTRESN",
      "RPSTRESU",
      "RPTEST",
      "RPTESTCD",
      "RPTPT",
      "RPTPTNUM",
      "RPTPTREF",
      "STUDYID",
      "TAETORD",
      "USUBJID",
      "VISIT",
      "VISITDY",
      "VISITNUM"
    ],
    "classes": [
      "Findings"
    ],
    "description": ""
  },
  "RS": {
    "variables": [
      "DOMAIN",
      "EPOCH",
      "RSACPTFL",
      "RSBLFL",
      "RSCAT",
      "RSDRVFL",
      "RSDTC",
      "RSDY",
      "RSELTM",
      "RSENRTPT",
      "RSENTPT",
      "RSEVAL",
      "RSEVALID",
      "RSEVINTX",
      "RSEVLINT",
      "RSGRPID",
      "RSLNKGRP",
      "RSLNKID",
      "RSLOBXFL",
      "RSMETHOD",
      "RSNAM",
      "RSORRES",
      "RSORRESU",
      "RSREASND",
      "RSREFID",
      "RSRFTDTC",
      "RSSCAT",
      "RSSEQ",
      "RSSPID",
      "RSSTAT",
      "RSSTRESC",
      "RSSTRESN",
      "RSSTRESU",
      "RSSTRTPT",
      "RSSTTPT",
      "RSTEST",
      "RSTESTCD",
      "RSTPT",
      "RSTPTNUM",
      "RSTPTREF",
      "STUDYID",
      "TAETORD",
      "USUBJID",
      "VISIT",
      "VISITDY",
      "VISITNUM"
    ],
    "classes": [
      "Findings"
    ],
    "description": ""
  },
  "SC": {
    "variables": [
      "DOMAIN",
      "EPOCH",
      "SCCAT",
      "SCDTC",
      "SCDY",
      "SCGRPID",
      "SCORRES",
      "SCORRESU",
      "SCREASND",
      "SCSCAT",
      "SCSEQ",
      "SCSPID",
      "SCSTAT",
      "SCSTRESC",
      "SCSTRESN",
      "SCSTRESU",
      "SCTEST",
      "SCTESTCD",
      "STUDYID",
      "TAETORD",
      "USUBJID",
      "VISIT",
      "VISITDY",
      "VISITNUM"
    ],
    "classes": [
      "Findings"
    ],
    "description": ""
  },
  "SS": {
    "variables": [
      "DOMAIN",
      "EPOCH",
      "SSCAT",
      "SSDTC",
      "SSDY",
      "SSEVAL",
      "SSGRPID",
      "SSORRES",
      "SSREASND",
      "SSSCAT",
      "SSSEQ",
      "SSSPID",
      "SSSTAT",
      "SSSTRESC",
      "SSTEST",
      "SSTESTCD",
      "STUDYID",
      "TAETORD",
      "USUBJID",
      "VISIT",
      "VISITDY",
      "VISITNUM"
    ],
    "classes": [
      "Findings"
    ],
    "description": ""
  },
  "TR": {
    "variables": [
      "DOMAIN",
      "EPOCH",
      "STUDYID",
      "TAETORD",
      "TRACPTFL",
      "TRBLFL",
      "TRDTC",
      "TRDY",
      "TREVAL",
      "TREVALID",
      "TRGRPID",
      "TRLNKGRP",
      "TRLNKID",
      "TRLOBXFL",
      "TRMETHOD",
      "TRNAM",
      "TRORRES",
      "TRORRESU",
      "TRREASND",
      "TRREFID",
      "TRSEQ",
      "TRSPID",
      "TRSTAT",
      "TRSTRESC",
      "TRSTRESN",
      "TRSTRESU",
      "TRTEST",
      "TRTESTCD",
      "USUBJID",
      "VISIT",
      "VISITDY",
      "VISITNUM"
    ],
    "classes": [
      "Findings"
    ],
    "description": ""
  },
  "TU": {
    "variables": [
      "DOMAIN",
      "EPOCH",
      "STUDYID",
      "TAETORD",
      "TUACPTFL",
      "TUBLFL",
      "TUDIR",
      "TUDTC",
      "TUDY",
      "TUEVAL",
      "TUEVALID",
      "TUGRPID",
      "TULAT",
      "TULNKGRP",
      "TULNKID",
      "TULOBXFL",
      "TULOC",
      "TUMETHOD",
      "TUNAM",
      "TUORRES",
      "TUPORTOT",
      "TUREFID",
      "TUSEQ",
      "TUSPID",
      "TUSTRESC",
      "TUTEST",
      "TUTESTCD",
      "USUBJID",
      "VISIT",
      "VISITDY",
      "VISITNUM"
    ],
    "classes": [
      "Findings"
    ],
    "description": ""
  },
  "UR": {
    "variables": [
      "DOMAIN",
      "EPOCH",
      "STUDYID",
      "TAETORD",
      "URBLFL",
      "URCAT",
      "URDIR",
      "URDRVFL",
      "URDTC",
      "URDY",
      "URELTM",
      "UREVAL",
      "UREVALID",
      "URGRPID",
      "URLAT",
      "URLNKGRP",
      "URLNKID",
      "URLOBXFL",
      "URLOC",
      "URMETHOD",
      "URORRES",
      "URORRESU",
      "URREASND",
      "URREFID",
      "URRESCAT",
      "URRFTDTC",
      "URSCAT",
      "URSEQ",
      "URSPID",
      "URSTAT",
      "URSTRESC",
      "URSTRESN",
      "URSTRESU",
      "URTEST",
      "URTESTCD",
      "URTPT",
      "URTPTNUM",
      "URTPTREF",
      "URTSTDTL",
      "USUBJID",
      "VISIT",
      "VISITDY",
      "VISITNUM"
    ],
    "classes": [
      "Findings"
    ],
    "description": ""
  },
  "VS": {
    "variables": [
      "DOMAIN",
      "EPOCH",
      "STUDYID",
      "TAETORD",
      "USUBJID",
      "VISIT",
      "VISITDY",
      "VISITNUM",
      "VSBLFL",
      "VSCAT",
      "VSCLSIG",
      "VSDRVFL",
      "VSDTC",
      "VSDY",
      "VSELTM",
      "VSGRPID",
      "VSLAT",
      "VSLOBXFL",
      "VSLOC",
      "VSORRES",
      "VSORRESU",
      "VSPOS",
      "VSREASND",
      "VSRFTDTC",
      "VSSCAT",
      "VSSEQ",
      "VSSPID",
      "VSSTAT",
      "VSSTRESC",
      "VSSTRESN",
      "VSSTRESU",
      "VSTEST",
      "VSTESTCD",
      "VSTOX",
      "VSTOXGR",
      "VSTPT",
      "VSTPTNUM",
      "VSTPTREF"
    ],
    "classes": [
      "Findings"
    ],
    "description": ""
  },
  "FA": {
    "variables": [
      "DOMAIN",
      "EPOCH",
      "FABLFL",
      "FACAT",
      "FADTC",
      "FADY",
      "FAEVAL",
      "FAGRPID",
      "FALAT",
      "FALOBXFL",
      "FALOC",
      "FAOBJ",
      "FAORRES",
      "FAORRESU",
      "FAREASND",
      "FASCAT",
      "FASEQ",
      "FASPID",
      "FASTAT",
      "FASTRESC",
      "FASTRESN",
      "FASTRESU",
      "FATEST",
      "FATESTCD",
      "STUDYID",
      "TAETORD",
      "USUBJID",
      "VISIT",
      "VISITDY",
      "VISITNUM"
    ],
    "classes": [
      "Findings About"
    ],
    "description": ""
  },
  "SR": {
    "variables": [
      "DOMAIN",
      "EPOCH",
      "SRBLFL",
      "SRCAT",
      "SRDTC",
      "SRDY",
      "SRELTM",
      "SREVAL",
      "SRGRPID",
      "SRLAT",
      "SRLOBXFL",
      "SRLOC",
      "SRMETHOD",
      "SRNAM",
      "SROBJ",
      "SRORRES",
      "SRORRESU",
      "SRREASND",
      "SRREFID",
      "SRRFTDTC",
      "SRSCAT",
      "SRSEQ",
      "SRSPEC",
      "SRSPID",
      "SRSTAT",
      "SRSTRESC",
      "SRSTRESN",
      "SRSTRESU",
      "SRTEST",
      "SRTESTCD",
      "SRTPT",
      "SRTPTNUM",
      "SRTPTREF",
      "STUDYID",
      "TAETORD",
      "USUBJID",
      "VISIT",
      "VISITDY",
      "VISITNUM"
    ],
    "classes": [
      "Findings About"
    ],
    "description": ""
  },
  "CO": {
    "variables": [
      "CODTC",
      "CODY",
      "COEVAL",
      "COEVALID",
      "COREF",
      "COSEQ",
      "COVAL",
      "DOMAIN",
      "IDVAR",
      "IDVARVAL",
      "RDOMAIN",
      "STUDYID",
      "USUBJID"
    ],
    "classes": [
      "Special-Purpose"
    ],
    "description": ""
  },
  "DM": {
    "variables": [
      "ACTARM",
      "ACTARMCD",
      "ACTARMUD",
      "AGE",
      "AGEU",
      "ARM",
      "ARMCD",
      "ARMNRS",
      "BRTHDTC",
      "COUNTRY",
      "DMDTC",
      "DMDY",
      "DOMAIN",
      "DTHDTC",
      "DTHFL",
      "ETHNIC",
      "INVID",
      "INVNAM",
      "RACE",
      "RFCENDTC",
      "RFCSTDTC",
      "RFENDTC",
      "RFICDTC",
      "RFPENDTC",
      "RFSTDTC",
      "RFXENDTC",
      "RFXSTDTC",
      "SEX",
      "SITEID",
      "STUDYID",
      "SUBJID",
      "USUBJID"
    ],
    "classes": [
      "Special-Purpose"
    ],
    "description": ""
  },
  "SE": {
    "variables": [
      "DOMAIN",
      "ELEMENT",
      "EPOCH",
      "ETCD",
      "SEENDTC",
      "SEENDY",
      "SESEQ",
      "SESTDTC",
      "SESTDY",
      "SEUPDES",
      "STUDYID",
      "TAETORD",
      "USUBJID"
    ],
    "classes": [
      "Special-Purpose"
    ],
    "description": ""
  },
  "SM": {
    "variables": [
      "DOMAIN",
      "MIDS",
      "MIDSTYPE",
      "SMENDTC",
      "SMENDY",
      "SMSEQ",
      "SMSTDTC",
      "SMSTDY",
      "STUDYID",
      "USUBJID"
    ],
    "classes": [
      "Special-Purpose"
    ],
    "description": ""
  },
  "SV": {
    "variables": [
      "DOMAIN",
      "STUDYID",
      "SVCNTMOD",
      "SVENDTC",
      "SVENDY",
      "SVEPCHGI",
      "SVOCCUR",
      "SVPRESP",
      "SVREASOC",
      "SVSTDTC",
      "SVSTDY",
      "SVUPDES",
      "USUBJID",
      "VISIT",
      "VISITDY",
      "VISITNUM"
    ],
    "classes": [
      "Special-Purpose"
    ],
    "description": ""
  },
  "TA": {
    "variables": [
      "ARM",
      "ARMCD",
      "DOMAIN",
      "ELEMENT",
      "EPOCH",
      "ETCD",
      "STUDYID",
      "TABRANCH",
      "TAETORD",
      "TATRANS"
    ],
    "classes": [
      "Trial Design"
    ],
    "description": ""
  },
  "TD": {
    "variables": [
      "DOMAIN",
      "STUDYID",
      "TDANCVAR",
      "TDMAXPAI",
      "TDMINPAI",
      "TDNUMRPT",
      "TDORDER",
      "TDSTOFF",
      "TDTGTPAI"
    ],
    "classes": [
      "Trial Design"
    ],
    "description": ""
  },
  "TE": {
    "variables": [
      "DOMAIN",
      "ELEMENT",
      "ETCD",
      "STUDYID",
      "TEDUR",
      "TEENRL",
      "TESTRL"
    ],
    "classes": [
      "Trial Design"
    ],
    "description": ""
  },
  "TI": {
    "variables": [
      "DOMAIN",
      "IECAT",
      "IESCAT",
      "IETEST",
      "IETESTCD",
      "STUDYID",
      "TIRL",
      "TIVERS"
    ],
    "classes": [
      "Trial Design"
    ],
    "description": ""
  },
  "TM": {
    "variables": [
      "DOMAIN",
      "MIDSTYPE",
      "STUDYID",
      "TMDEF",
      "TMRPT"
    ],
    "classes": [
      "Trial Design"
    ],
    "description": ""
  },
  "TS": {
    "variables": [
      "DOMAIN",
      "STUDYID",
      "TSGRPID",
      "TSPARM",
      "TSPARMCD",
      "TSSEQ",
      "TSVAL",
      "TSVALCD",
      "TSVALNF",
      "TSVCDREF",
      "TSVCDVER"
    ],
    "classes": [
      "Trial Design"
    ],
    "description": ""
  },
  "TV": {
    "variables": [
      "ARM",
      "ARMCD",
      "DOMAIN",
      "STUDYID",
      "TVENRL",
      "TVSTRL",
      "VISIT",
      "VISITDY",
      "VISITNUM"
    ],
    "classes": [
      "Trial Design"
    ],
    "description": ""
  },
  "OI": {
    "variables": [
      "DOMAIN",
      "NHOID",
      "OIPARM",
      "OIPARMCD",
      "OISEQ",
      "OIVAL",
      "STUDYID"
    ],
    "classes": [
      "Study Reference"
    ],
    "description": ""
  },
  "RELREC": {
    "variables": [
      "IDVAR",
      "IDVARVAL",
      "RDOMAIN",
      "RELID",
      "RELTYPE",
      "STUDYID",
      "USUBJID"
    ],
    "classes": [
      "Relationship"
    ],
    "description": ""
  },
  "RELSPEC": {
    "variables": [
      "LEVEL",
      "PARENT",
      "REFID",
      "SPEC",
      "STUDYID",
      "USUBJID"
    ],
    "classes": [
      "Relationship"
    ],
    "description": ""
  },
  "RELSUB": {
    "variables": [
      "POOLID",
      "RSUBJID",
      "SREL",
      "STUDYID",
      "USUBJID"
    ],
    "classes": [
      "Relationship"
    ],
    "description": ""
  },
  "SUPPQUAL": {
    "variables": [
      "IDVAR",
      "IDVARVAL",
      "QEVAL",
      "QLABEL",
      "QNAM",
      "QORIG",
      "QVAL",
      "RDOMAIN",
      "STUDYID",
      "USUBJID"
    ],
    "classes": [
      "Relationship"
    ],
    "description": ""
  }
}