{
  "AG.STUDYID": "STUDYID in AG domain | Label: Study Identifier | Description: Unique identifier for a study. | Role: Identifier | Type: Char | Core: Req | Class: Interventions",
  "AG.DOMAIN": "DOMAIN in AG domain | Label: Domain Abbreviation | Description: Two-character abbreviation for the domain. | Role: Identifier | Type: Char | Core: Req | Class: Interventions",
  "AG.USUBJID": "USUBJID in AG domain | Label: Unique Subject Identifier | Description: Identifier used to uniquely identify a subject across all studies for all applications or submissions involving the product. | Role: Identifier | Type: Char | Core: Req | Class: Interventions",
  "AG.AGSEQ": "AGSEQ in AG domain | Label: Sequence Number | Description: Sequence number given to ensure uniqueness of subject records within a domain. May be any valid number. | Role: Identifier | Type: Num | Core: Req | Class: Interventions",
  "AG.AGGRPID": "AGGRPID in AG domain | Label: Group ID | Description: Used to tie together a block of related records in a single domain for a subject. | Role: Identifier | Type: Char | Core: Perm | Class: Interventions",
  "AG.AGSPID": "AGSPID in AG domain | Label: Sponsor-Defined Identifier | Description: Sponsor-defined reference number. May be preprinted on the CRF as an explicit line identifier or defined in the sponsor's operational database. Example: Line number from the procedure or test page. | Role: Identifier | Type: Char | Core: Perm | Class: Interventions",
  "AG.AGLNKID": "AGLNKID in AG domain | Label: Link ID | Description: Identifier used to link related records across domains.This may be a one-to-one or a one-to-many relationship. | Role: Identifier | Type: Char | Core: Perm | Class: Interventions",
  "AG.AGLNKGRP": "AGLNKGRP in AG domain | Label: Link Group ID | Description: Identifier used to link related records across domains.This will usually be a many-to-one relationship. | Role: Identifier | Type: Char | Core: Perm | Class: Interventions",
  "AG.AGTRT": "AGTRT in AG domain | Label: Reported Agent Name | Description: Verbatim medication name that is either preprinted or collected on a CRF. | Role: Topic | Type: Char | Core: Req | Class: Interventions",
  "AG.AGMODIFY": "AGMODIFY in AG domain | Label: Modified Reported Name | Description: If AGTRT is modified to facilitate coding, then AGMODIFY will contain the modified text. | Role: Synonym Qualifier | Type: Char | Core: Perm | Class: Interventions",
  "AG.AGDECOD": "AGDECOD in AG domain | Label: Standardized Agent Name | Description: Standardized or dictionary-derived text description of AGTRT or AGMODIFY. Equivalent to the generic medication name in WHO Drug. The sponsor is expected to provide the dictionary name and version used to map the terms utilizing the external codelist element in the Define-XML document. If an intervention term does not have a decode value in the dictionary, then AGDECOD will be left blank. | Role: Synonym Qualifier | Type: Char | Core: Perm | Class: Interventions",
  "AG.AGCAT": "AGCAT in AG domain | Label: Category for Agent | Description: Used to define a category of agent. Examples: \"CHALLENGE AGENT\", \"PET TRACER\". | Role: Grouping Qualifier | Type: Char | Core: Perm | Class: Interventions",
  "AG.AGSCAT": "AGSCAT in AG domain | Label: Subcategory for Agent | Description: Further categorization of agent. | Role: Grouping Qualifier | Type: Char | Core: Perm | Class: Interventions",
  "AG.AGPRESP": "AGPRESP in AG domain | Label: AG Pre-Specified | Description: Used to indicate whether (\"Y\"/null) information about the use of a specific agent was solicited on the CRF. | Role: Variable Qualifier | Type: Char | Core: Perm | Class: Interventions",
  "AG.AGOCCUR": "AGOCCUR in AG domain | Label: AG Occurrence | Description: When the use of specific agent is solicited, AGOCCUR is used to indicate whether (\"Y\"/\"N\") use of the agent occurred. Values are null for agents not specifically solicited. | Role: Record Qualifier | Type: Char | Core: Perm | Class: Interventions",
  "AG.AGSTAT": "AGSTAT in AG domain | Label: Completion Status | Description: Used to indicate that a question about a prespecified agent was not answered. Should be null or have a value of \"NOT DONE\". | Role: Record Qualifier | Type: Char | Core: Perm | Class: Interventions",
  "AG.AGREASND": "AGREASND in AG domain | Label: Reason Procedure Agent Not Collected | Description: Describes the reason a response to a question about the occurrence of a procedure agent was not collected. Used in conjunction with AGSTAT when value is \"NOT DONE\". | Role: Record Qualifier | Type: Char | Core: Perm | Class: Interventions",
  "AG.AGCLAS": "AGCLAS in AG domain | Label: Agent Class | Description: Drug class. May be obtained from coding. When coding to a single class, populate with class value. If using a dictionary and coding to multiple classes, follow guidance in Section 4.2.8.3, Multiple Values for a Non-result Qualifier Variable, or omit AGCLAS. | Role: Variable Qualifier | Type: Char | Core: Perm | Class: Interventions",
  "AG.AGCLASCD": "AGCLASCD in AG domain | Label: Agent Class Code | Description: Class code corresponding to AGCLAS. Drug class. May be obtained from coding. When coding to a single class, populate with class code. If using a dictionary and coding to multiple classes, follow guidance in Section 4.2.8.3, Multiple Values for a Non-result Qualifier Variable, or omit AGCLASCD. | Role: Variable Qualifier | Type: Char | Core: Perm | Class: Interventions",
  "AG.AGDOSE": "AGDOSE in AG domain | Label: Dose per Administration | Description: Amount of AGTRT taken. | Role: Record Qualifier | Type: Num | Core: Perm | Class: Interventions",
  "AG.AGDOSTXT": "AGDOSTXT in AG domain | Label: Dose Description | Description: Dosing amounts or a range of dosing information collected in text form. Units may be stored in AGDOSU. Examples: \"200-400\", \"15-20\". | Role: Record Qualifier | Type: Char | Core: Perm | Class: Interventions",
  "AG.AGDOSU": "AGDOSU in AG domain | Label: Dose Units | Description: Units for AGDOSE and AGDOSTXT. Examples: \"ng\", \"mg\", \"mg/kg\". | Role: Variable Qualifier | Type: Char | Core: Perm | Class: Interventions",
  "AG.AGDOSFRM": "AGDOSFRM in AG domain | Label: Dose Form | Description: Dose form for AGTRT. Examples: \"TABLET\", \"AEROSOL\". | Role: Variable Qualifier | Type: Char | Core: Perm | Class: Interventions",
  "AG.AGDOSFRQ": "AGDOSFRQ in AG domain | Label: Dosing Frequency per Interval | Description: Usually expressed as the number of repeated administrations of AGDOSE within a specific time period. Example: \"ONCE\". | Role: Record Qualifier | Type: Char | Core: Perm | Class: Interventions",
  "AG.AGROUTE": "AGROUTE in AG domain | Label: Route of Administration | Description: Route of administration for AGTRT. Example: \"ORAL\". | Role: Variable Qualifier | Type: Char | Core: Perm | Class: Interventions",
  "AG.VISITNUM": "VISITNUM in AG domain | Label: Visit Number | Description: 1. Clinical encounter number. \\n 2. Numeric version of VISIT, used for sorting. | Role: Timing | Type: Num | Core: Exp | Class: Interventions",
  "AG.VISIT": "VISIT in AG domain | Label: Visit Name | Description: 1. Protocol-defined description of clinical encounter. \\n 2. May be used in addition to VISITNUM and/or VISITDY. | Role: Timing | Type: Char | Core: Perm | Class: Interventions",
  "AG.VISITDY": "VISITDY in AG domain | Label: Planned Study Day of Visit | Description: Planned study day of the visit based upon RFSTDTC in Demographics. | Role: Timing | Type: Num | Core: Perm | Class: Interventions",
  "AG.TAETORD": "TAETORD in AG domain | Label: Planned Order of Element within Arm | Description: Number that gives the planned order of the element within the arm for the element in which the agent administration started. | Role: Timing | Type: Num | Core: Perm | Class: Interventions",
  "AG.EPOCH": "EPOCH in AG domain | Label: Epoch | Description: Epoch associated with the start date/time of the agent administration started. | Role: Timing | Type: Char | Core: Perm | Class: Interventions",
  "AG.AGSTDTC": "AGSTDTC in AG domain | Label: Start Date/Time of Agent | Description: The date/time when administration of the treatment indicated by AGTRT and the dosing variables began. | Role: Timing | Type: Char | Core: Perm | Class: Interventions",
  "AG.AGENDTC": "AGENDTC in AG domain | Label: End Date/Time of Agent | Description: The date/time when administration of the treatment indicated by AGTRT and the dosing variables ended. | Role: Timing | Type: Char | Core: Perm | Class: Interventions",
  "AG.AGSTDY": "AGSTDY in AG domain | Label: Study Day of Start of Agent | Description: Study day of start of agent relative to the sponsor-defined RFSTDTC. | Role: Timing | Type: Num | Core: Perm | Class: Interventions",
  "AG.AGENDY": "AGENDY in AG domain | Label: Study Day of End of Agent | Description: Study day of end of agent relative to the sponsor-defined RFSTDTC. | Role: Timing | Type: Num | Core: Perm | Class: Interventions",
  "AG.AGDUR": "AGDUR in AG domain | Label: Duration of Agent | Description: Collected duration for an agent episode. Used only if collected on the CRF and not derived from start and end date/times. | Role: Timing | Type: Char | Core: Perm | Class: Interventions",
  "AG.AGSTRF": "AGSTRF in AG domain | Label: Start Relative to Reference Period | Description: Describes the start of the agent relative to sponsor-defined reference period. The sponsor-defined reference period is a continuous period of time defined by a discrete starting point and a discrete ending point (represented by RFSTDTC and RFENDTC in Demographics). If information such as \"PRIOR\", \"ONGOING\", or \"CONTINUING\" was collected, this information may be translated into AGSTRF. \\n Not all values of the codelist are allowable for this variable. See Section 4.4.7, Use of Relative Timing Variables. | Role: Timing | Type: Char | Core: Perm | Class: Interventions",
  "AG.AGENRF": "AGENRF in AG domain | Label: End Relative to Reference Period | Description: Describes the end of the agent relative to the sponsor-defined reference period. The sponsor-defined reference period is a continuous period of time defined by a discrete starting point and a discrete ending point (represented by RFSTDTC and RFENDTC in Demographics). If information such as \"PRIOR\", \"ONGOING\", or \"CONTINUING\" was collected, this information may be translated into AGENRF. \\n Not all values of the codelist are allowable for this variable. See Section 4.4.7, Use of Relative Timing Variables. | Role: Timing | Type: Char | Core: Perm | Class: Interventions",
  "AG.AGSTRTPT": "AGSTRTPT in AG domain | Label: Start Relative to Reference Time Point | Description: Identifies the start of the agent as being before or after the sponsor-defined reference time point defined by variable AGSTTPT. \\n Not all values of the codelist are allowable for this variable. See Section 4.4.7, Use of Relative Timing Variables. | Role: Timing | Type: Char | Core: Perm | Class: Interventions",
  "AG.AGSTTPT": "AGSTTPT in AG domain | Label: Start Reference Time Point | Description: Description or date/time in ISO 8601 character format of the reference point referred to by AGSTRTPT. Examples: \"2003-12-15\", \"VISIT 1\". | Role: Timing | Type: Char | Core: Perm | Class: Interventions",
  "AG.AGENRTPT": "AGENRTPT in AG domain | Label: End Relative to Reference Time Point | Description: Identifies the end of the agent as being before or after the reference time point defined by variable AGENTPT. Identifies the end of the agent as being before or after the sponsor-defined reference time point defined by variable AGENTPT. \\n Not all values of the codelist are allowable for this variable. See Section 4.4.7, Use of Relative Timing Variables. | Role: Timing | Type: Char | Core: Perm | Class: Interventions",
  "AG.AGENTPT": "AGENTPT in AG domain | Label: End Reference Time Point | Description: Description or date/time in ISO 8601 character format of the reference point referred to by AGENRTPT. Examples: \"2003-12-25\", \"VISIT 2\". | Role: Timing | Type: Char | Core: Perm | Class: Interventions",
  "CM.STUDYID": "STUDYID in CM domain | Label: Study Identifier | Description: Unique identifier for a study. | Role: Identifier | Type: Char | Core: Req | Class: Interventions",
  "CM.DOMAIN": "DOMAIN in CM domain | Label: Domain Abbreviation | Description: Two-character abbreviation for the domain. | Role: Identifier | Type: Char | Core: Req | Class: Interventions",
  "CM.USUBJID": "USUBJID in CM domain | Label: Unique Subject Identifier | Description: Identifier used to uniquely identify a subject across all studies for all applications or submissions involving the product. | Role: Identifier | Type: Char | Core: Req | Class: Interventions",
  "CM.CMSEQ": "CMSEQ in CM domain | Label: Sequence Number | Description: Sequence number to ensure uniqueness of subject records within a domain. May be any valid number. | Role: Identifier | Type: Num | Core: Req | Class: Interventions",
  "CM.CMGRPID": "CMGRPID in CM domain | Label: Group ID | Description: Used to tie together a block of related records in a single domain for a subject. | Role: Identifier | Type: Char | Core: Perm | Class: Interventions",
  "CM.CMSPID": "CMSPID in CM domain | Label: Sponsor-Defined Identifier | Description: Sponsor-defined reference number. Example: a number preprinted on the CRF as an explicit line identifier or record identifier defined in the sponsor's operational database. Example: line number on a concomitant medication page. | Role: Identifier | Type: Char | Core: Perm | Class: Interventions",
  "CM.CMTRT": "CMTRT in CM domain | Label: Reported Name of Drug, Med, or Therapy | Description: Verbatim medication name that is either preprinted or collected on a CRF. | Role: Topic | Type: Char | Core: Req | Class: Interventions",
  "CM.CMMODIFY": "CMMODIFY in CM domain | Label: Modified Reported Name | Description: If CMTRT is modified to facilitate coding, then CMMODIFY will contain the modified text. | Role: Synonym Qualifier | Type: Char | Core: Perm | Class: Interventions",
  "CM.CMDECOD": "CMDECOD in CM domain | Label: Standardized Medication Name | Description: Standardized or dictionary-derived text description of CMTRT or CMMODIFY. Equivalent to the generic drug name in WHO Drug. The sponsor is expected to provide the dictionary name and version used to map the terms utilizing the external codelist element in the Define-XML document. If an intervention term does not have a decode value in the dictionary, then CMDECOD will be left blank. | Role: Synonym Qualifier | Type: Char | Core: Perm | Class: Interventions",
  "CM.CMCAT": "CMCAT in CM domain | Label: Category for Medication | Description: Used to define a category of medications/treatment. Examples: \"PRIOR\", \"CONCOMITANT\", \"ANTI-CANCER MEDICATION\", \"GENERAL CONMED\". | Role: Grouping Qualifier | Type: Char | Core: Perm | Class: Interventions",
  "CM.CMSCAT": "CMSCAT in CM domain | Label: Subcategory for Medication | Description: A further categorization of medications/treatment. Examples: \"CHEMOTHERAPY\", \"HORMONAL THERAPY\", \"ALTERNATIVE THERAPY\". | Role: Grouping Qualifier | Type: Char | Core: Perm | Class: Interventions",
  "CM.CMPRESP": "CMPRESP in CM domain | Label: CM Pre-specified | Description: Used to indicate whether (\"Y\"/null) information about the use of a specific medication was solicited on the CRF. | Role: Variable Qualifier | Type: Char | Core: Perm | Class: Interventions",
  "CM.CMOCCUR": "CMOCCUR in CM domain | Label: CM Occurrence | Description: When the use of a specific medication is solicited. CMOCCUR is used to indicate whether (\"Y\"/\"N\") use of the medication occurred. Values are null for medications not specifically solicited. | Role: Record Qualifier | Type: Char | Core: Perm | Class: Interventions",
  "CM.CMSTAT": "CMSTAT in CM domain | Label: Completion Status | Description: Used to indicate that a question about the occurrence of a prespecified intervention was not answered. Should be null or have a value of \"NOT DONE\". | Role: Record Qualifier | Type: Char | Core: Perm | Class: Interventions",
  "CM.CMREASND": "CMREASND in CM domain | Label: Reason Medication Not Collected | Description: Reason not done. Used in conjunction with CMSTAT when value is \"NOT DONE\". | Role: Record Qualifier | Type: Char | Core: Perm | Class: Interventions",
  "CM.CMINDC": "CMINDC in CM domain | Label: Indication | Description: Denotes why a medication was taken or administered. Examples: \"NAUSEA\", \"HYPERTENSION\". | Role: Record Qualifier | Type: Char | Core: Perm | Class: Interventions",
  "CM.CMCLAS": "CMCLAS in CM domain | Label: Medication Class | Description: Drug class. May be obtained from coding. When coding to a single class, populate with class value. If using a dictionary and coding to multiple classes, then follow Section 4.2.8.3, Multiple Values for a Non-result Qualifier Variable, or omit CMCLAS. | Role: Variable Qualifier | Type: Char | Core: Perm | Class: Interventions",
  "CM.CMCLASCD": "CMCLASCD in CM domain | Label: Medication Class Code | Description: Class code corresponding to CMCLAS. Drug class. May be obtained from coding. When coding to a single class, populate with class code. If using a dictionary and coding to multiple classes, then follow Section 4.2.8.3, Multiple Values for a Non-result Qualifier Variable, or omit CMCLASCD. | Role: Variable Qualifier | Type: Char | Core: Perm | Class: Interventions",
  "CM.CMDOSE": "CMDOSE in CM domain | Label: Dose per Administration | Description: Amount of CMTRT given. Not populated when CMDOSTXT is populated. | Role: Record Qualifier | Type: Num | Core: Perm | Class: Interventions",
  "CM.CMDOSTXT": "CMDOSTXT in CM domain | Label: Dose Description | Description: Dosing amounts or a range of dosing information collected in text form. Units may be stored in CMDOSU. Examples: \"200-400\", \"15-20\". Not populated when CMDOSE is populated. | Role: Record Qualifier | Type: Char | Core: Perm | Class: Interventions",
  "CM.CMDOSU": "CMDOSU in CM domain | Label: Dose Units | Description: Units for CMDOSE, CMDOSTOT, or CMDOSTXT. Examples: \"ng\", \"mg\", \"mg/kg\". | Role: Variable Qualifier | Type: Char | Core: Perm | Class: Interventions",
  "CM.CMDOSFRM": "CMDOSFRM in CM domain | Label: Dose Form | Description: Dose form for CMTRT. Examples: \"TABLET\", \"LOTION\". | Role: Variable Qualifier | Type: Char | Core: Perm | Class: Interventions",
  "CM.CMDOSFRQ": "CMDOSFRQ in CM domain | Label: Dosing Frequency per Interval | Description: Usually expressed as the number of repeated administrations of CMDOSE within a specific time period. Examples: \"BID\" (twice daily), \"Q12H\" (every 12 hours). | Role: Record Qualifier | Type: Char | Core: Perm | Class: Interventions",
  "CM.CMDOSTOT": "CMDOSTOT in CM domain | Label: Total Daily Dose | Description: Total daily dose of CMTRT using the units in CMDOSU. Used when dosing is collected as total daily dose. Total dose over a period other than day could be recorded in a separate supplemental qualifier variable. | Role: Record Qualifier | Type: Num | Core: Perm | Class: Interventions",
  "CM.CMDOSRGM": "CMDOSRGM in CM domain | Label: Intended Dose Regimen | Description: Text description of the (intended) schedule or regimen for the Intervention. Example: \"TWO WEEKS ON, TWO WEEKS OFF\". | Role: Record Qualifier | Type: Char | Core: Perm | Class: Interventions",
  "CM.CMROUTE": "CMROUTE in CM domain | Label: Route of Administration | Description: Route of administration for the intervention. Examples: \"ORAL\", \"INTRAVENOUS\". | Role: Variable Qualifier | Type: Char | Core: Perm | Class: Interventions",
  "CM.CMADJ": "CMADJ in CM domain | Label: Reason for Dose Adjustment | Description: Describes reason or explanation of why a dose is adjusted. Examples: \"ADVERSE EVENT\", \"INSUFFICIENT RESPONSE\", \"NON-MEDICAL REASON\". | Role: Record Qualifier | Type: Char | Core: Perm | Class: Interventions",
  "CM.CMRSDISC": "CMRSDISC in CM domain | Label: Reason the Intervention Was Discontinued | Description: When dosing of a treatment is recorded over multiple successive records, this variable is applicable only for the (chronologically) last record for the treatment. | Role: Record Qualifier | Type: Char | Core: Perm | Class: Interventions",
  "CM.TAETORD": "TAETORD in CM domain | Label: Planned Order of Element within Arm | Description: Number that gives the planned order of the element within the arm for the element in which the medication administration started. Null for medications that started before study participation. | Role: Timing | Type: Num | Core: Perm | Class: Interventions",
  "CM.EPOCH": "EPOCH in CM domain | Label: Epoch | Description: Epoch associated with the start date/time of the medication administration. Null for medications that started before study participation. | Role: Timing | Type: Char | Core: Perm | Class: Interventions",
  "CM.CMSTDTC": "CMSTDTC in CM domain | Label: Start Date/Time of Medication | Description: Start date/time of the medication administration represented in ISO 8601 character format. | Role: Timing | Type: Char | Core: Perm | Class: Interventions",
  "CM.CMENDTC": "CMENDTC in CM domain | Label: End Date/Time of Medication | Description: End date/time of the medication administration represented in ISO 8601 character format. | Role: Timing | Type: Char | Core: Perm | Class: Interventions",
  "CM.CMSTDY": "CMSTDY in CM domain | Label: Study Day of Start of Medication | Description: Study day of start of medication relative to the sponsor-defined RFSTDTC. | Role: Timing | Type: Num | Core: Perm | Class: Interventions",
  "CM.CMENDY": "CMENDY in CM domain | Label: Study Day of End of Medication | Description: Study day of end of medication relative to the sponsor-defined RFSTDTC. | Role: Timing | Type: Num | Core: Perm | Class: Interventions",
  "CM.CMDUR": "CMDUR in CM domain | Label: Duration | Description: Collected duration for a treatment episode. Used only if collected on the CRF and not derived from start and end date/times. | Role: Timing | Type: Char | Core: Perm | Class: Interventions",
  "CM.CMSTRF": "CMSTRF in CM domain | Label: Start Relative to Reference Period | Description: Describes the start of the medication relative to sponsor-defined reference period. The sponsor-defined reference period is a continuous period of time defined by a discrete starting point and a discrete ending point (represented by RFSTDTC and RFENDTC in Demographics). If information such as \"PRIOR\" was collected, this information may be translated into CMSTRF. \\n Not all values of the codelist are allowable for this variable. See Section 4.4.7, Use of Relative Timing Variables. | Role: Timing | Type: Char | Core: Perm | Class: Interventions",
  "CM.CMENRF": "CMENRF in CM domain | Label: End Relative to Reference Period | Description: Describes the end of the medication relative to the sponsor-defined reference period. The sponsor-defined reference period is a continuous period of time defined by a discrete starting point and a discrete ending point (represented by RFSTDTC and RFENDTC in Demographics). If information such as \"PRIOR\", \"ONGOING, or \"CONTINUING\" was collected, this information may be translated into CMENRF. \\n Not all values of the codelist are allowable for this variable. See Section 4.4.7, Use of Relative Timing Variables. | Role: Timing | Type: Char | Core: Perm | Class: Interventions",
  "CM.CMSTRTPT": "CMSTRTPT in CM domain | Label: Start Relative to Reference Time Point | Description: Identifies the start of the medication as being before or after the sponsor-defined reference time point defined by variable CMSTTPT. \\n Not all values of the codelist are allowable for this variable. See Section 4.4.7, Use of Relative Timing Variables. | Role: Timing | Type: Char | Core: Perm | Class: Interventions",
  "CM.CMSTTPT": "CMSTTPT in CM domain | Label: Start Reference Time Point | Description: Description or date/time in ISO 8601 character format of the sponsor-defined reference point referred to by CMSTRTPT. Examples: \"2003-12-15\", \"VISIT 1\". | Role: Timing | Type: Char | Core: Perm | Class: Interventions",
  "CM.CMENRTPT": "CMENRTPT in CM domain | Label: End Relative to Reference Time Point | Description: Identifies the end of the medication as being before or after the sponsor-defined reference time point defined by variable CMENTPT. \\n Not all values of the codelist are allowable for this variable. See Section 4.4.7, Use of Relative Timing Variables. | Role: Timing | Type: Char | Core: Perm | Class: Interventions",
  "CM.CMENTPT": "CMENTPT in CM domain | Label: End Reference Time Point | Description: Description or date/time in ISO 8601 character format of the sponsor-defined reference point referred to by CMENRTPT. Examples: \"2003-12-25\", \"VISIT 2\". | Role: Timing | Type: Char | Core: Perm | Class: Interventions",
  "EC.STUDYID": "STUDYID in EC domain | Label: Study Identifier | Description: Unique identifier for a study. | Role: Identifier | Type: Char | Core: Req | Class: Interventions",
  "EC.DOMAIN": "DOMAIN in EC domain | Label: Domain Abbreviation | Description: Two-character abbreviation for the domain. | Role: Identifier | Type: Char | Core: Req | Class: Interventions",
  "EC.USUBJID": "USUBJID in EC domain | Label: Unique Subject Identifier | Description: Identifier used to uniquely identify a subject across all studies for all applications or submissions involving the product. | Role: Identifier | Type: Char | Core: Req | Class: Interventions",
  "EC.ECSEQ": "ECSEQ in EC domain | Label: Sequence Number | Description: Sequence number given to ensure uniqueness of subject records within a domain. May be any valid number. | Role: Identifier | Type: Num | Core: Req | Class: Interventions",
  "EC.ECGRPID": "ECGRPID in EC domain | Label: Group ID | Description: Used to tie together a block of related records in a single domain for a subject. | Role: Identifier | Type: Char | Core: Perm | Class: Interventions",
  "EC.ECREFID": "ECREFID in EC domain | Label: Reference ID | Description: Internal or external identifier (e.g., kit number, bottle label, vial identifier). | Role: Identifier | Type: Char | Core: Perm | Class: Interventions",
  "EC.ECSPID": "ECSPID in EC domain | Label: Sponsor-Defined Identifier | Description: Sponsor-defined reference number. May be preprinted on the CRF as an explicit line identifier or defined in the sponsor's operational database. Example: Line number on a CRF page. | Role: Identifier | Type: Char | Core: Perm | Class: Interventions",
  "EC.ECLNKID": "ECLNKID in EC domain | Label: Link ID | Description: Identifier used to link related records across domains. | Role: Identifier | Type: Char | Core: Perm | Class: Interventions",
  "EC.ECLNKGRP": "ECLNKGRP in EC domain | Label: Link Group ID | Description: Identifier used to link related, grouped records across domains. | Role: Identifier | Type: Char | Core: Perm | Class: Interventions",
  "EC.ECTRT": "ECTRT in EC domain | Label: Name of Treatment | Description: Name of the intervention treatment known to the subject and/or administrator. | Role: Topic | Type: Char | Core: Req | Class: Interventions",
  "EC.ECMOOD": "ECMOOD in EC domain | Label: Mood | Description: Mode or condition of the record specifying whether the intervention (activity) is intended to happen or has happened. Values align with BRIDG pillars (e.g., scheduled context, performed context) and HL7 activity moods (e.g., intent, event). Examples: \"SCHEDULED\", \"PERFORMED\". | Role: Record Qualifier | Type: Char | Core: Perm | Class: Interventions",
  "EC.ECCAT": "ECCAT in EC domain | Label: Category of Treatment | Description: Used to define a category of related ECTRT values. | Role: Grouping Qualifier | Type: Char | Core: Perm | Class: Interventions",
  "EC.ECSCAT": "ECSCAT in EC domain | Label: Subcategory of Treatment | Description: A further categorization of ECCAT values. | Role: Grouping Qualifier | Type: Char | Core: Perm | Class: Interventions",
  "EC.ECPRESP": "ECPRESP in EC domain | Label: Pre-Specified | Description: Used when a specific intervention is prespecified. Values should be \"Y\" or null. | Role: Variable Qualifier | Type: Char | Core: Perm | Class: Interventions",
  "EC.ECOCCUR": "ECOCCUR in EC domain | Label: Occurrence | Description: Used to indicate whether a treatment occurred when information about the occurrence is solicited. ECOCCUR = \"N\" when a treatment was not taken, not given, or missed. | Role: Record Qualifier | Type: Char | Core: Perm | Class: Interventions",
  "EC.ECREASOC": "ECREASOC in EC domain | Label: Reason for Occur Value | Description: The reason for the value in --OCCUR. If --OCCUR = \"N\", this is the reason the exposure did not occur. | Role: Record Qualifier | Type: Char | Core: Perm | Class: Interventions",
  "EC.ECDOSE": "ECDOSE in EC domain | Label: Dose | Description: Amount of ECTRT when numeric. Not populated when ECDOSTXT is populated. | Role: Record Qualifier | Type: Num | Core: Exp | Class: Interventions",
  "EC.ECDOSTXT": "ECDOSTXT in EC domain | Label: Dose Description | Description: Amount of ECTRT when non-numeric. Dosing amounts or a range of dosing information collected in text form. Example: \"200-400\". Not populated when ECDOSE is populated. | Role: Record Qualifier | Type: Char | Core: Perm | Class: Interventions",
  "EC.ECDOSU": "ECDOSU in EC domain | Label: Dose Units | Description: Units for ECDOSE, ECDOSTOT, or ECDOSTXT. | Role: Variable Qualifier | Type: Char | Core: Exp | Class: Interventions",
  "EC.ECDOSFRM": "ECDOSFRM in EC domain | Label: Dose Form | Description: Dose form for ECTRT. Examples: \"TABLET\", \"LOTION\". | Role: Variable Qualifier | Type: Char | Core: Exp | Class: Interventions",
  "EC.ECDOSFRQ": "ECDOSFRQ in EC domain | Label: Dosing Frequency per Interval | Description: Usually expressed as the number of repeated administrations of ECDOSE within a specific time period. Examples: \"Q2H\", \"QD\", \"BID\". | Role: Record Qualifier | Type: Char | Core: Perm | Class: Interventions",
  "EC.ECDOSTOT": "ECDOSTOT in EC domain | Label: Total Daily Dose | Description: Total daily dose of ECTRT using the units in ECDOSU. Used when dosing is collected as total daily dose. | Role: Record Qualifier | Type: Num | Core: Perm | Class: Interventions",
  "EC.ECDOSRGM": "ECDOSRGM in EC domain | Label: Intended Dose Regimen | Description: Text description of the intended schedule or regimen for the Intervention. Example: \"TWO WEEKS ON\", \"TWO WEEKS OFF\". | Role: Record Qualifier | Type: Char | Core: Perm | Class: Interventions",
  "EC.ECROUTE": "ECROUTE in EC domain | Label: Route of Administration | Description: Route of administration for the intervention. Examples: \"ORAL\", \"INTRAVENOUS\". | Role: Variable Qualifier | Type: Char | Core: Perm | Class: Interventions",
  "EC.ECLOT": "ECLOT in EC domain | Label: Lot Number | Description: Lot number of the ECTRT product. | Role: Record Qualifier | Type: Char | Core: Perm | Class: Interventions",
  "EC.ECLOC": "ECLOC in EC domain | Label: Location of Dose Administration | Description: Specifies location of administration. Example: \"ARM\", \"LIP\". | Role: Record Qualifier | Type: Char | Core: Perm | Class: Interventions",
  "EC.ECLAT": "ECLAT in EC domain | Label: Laterality | Description: Qualifier for anatomical location further detailing laterality of the intervention administration. Examples: \"LEFT\", \"RIGHT\". | Role: Variable Qualifier | Type: Char | Core: Perm | Class: Interventions",
  "EC.ECDIR": "ECDIR in EC domain | Label: Directionality | Description: Qualifier for anatomical location further detailing directionality. Examples: \"ANTERIOR\", \"LOWER\", \"PROXIMAL\", \"UPPER\". | Role: Variable Qualifier | Type: Char | Core: Perm | Class: Interventions",
  "EC.ECPORTOT": "ECPORTOT in EC domain | Label: Portion or Totality | Description: Qualifier for anatomical location further detailing distribution (i.e., arrangement of, apportioning of). Examples: \"ENTIRE\", \"SINGLE\", \"SEGMENT\". | Role: Variable Qualifier | Type: Char | Core: Perm | Class: Interventions",
  "EC.ECFAST": "ECFAST in EC domain | Label: Fasting Status | Description: Indicator used to identify fasting status. Examples: \"Y\", \"N\". | Role: Record Qualifier | Type: Char | Core: Perm | Class: Interventions",
  "EC.ECPSTRG": "ECPSTRG in EC domain | Label: Pharmaceutical Strength | Description: Amount of an active ingredient expressed quantitatively per dosage unit, per unit of volume, or per unit of weight, according to the pharmaceutical dose form. | Role: Record Qualifier | Type: Num | Core: Perm | Class: Interventions",
  "EC.ECPSTRGU": "ECPSTRGU in EC domain | Label: Pharmaceutical Strength Units | Description: Unit for ECPSTRG. Examples: \"mg/TABLET\", \"mg/mL\". | Role: Variable Qualifier | Type: Char | Core: Perm | Class: Interventions",
  "EC.ECADJ": "ECADJ in EC domain | Label: Reason for Dose Adjustment | Description: Describes reason or explanation of why a dose is adjusted. | Role: Record Qualifier | Type: Char | Core: Perm | Class: Interventions",
  "EC.TAETORD": "TAETORD in EC domain | Label: Planned Order of Element within Arm | Description: Number that gives the planned order of the element within the arm. | Role: Timing | Type: Num | Core: Perm | Class: Interventions",
  "EC.EPOCH": "EPOCH in EC domain | Label: Epoch | Description: Trial epoch of the exposure as collected record. Examples: \"RUN-IN\", \"TREATMENT\". | Role: Timing | Type: Char | Core: Perm | Class: Interventions",
  "EC.ECSTDTC": "ECSTDTC in EC domain | Label: Start Date/Time of Treatment | Description: The date/time when administration of the treatment indicated by ECTRT and ECDOSE began. | Role: Timing | Type: Char | Core: Exp | Class: Interventions",
  "EC.ECENDTC": "ECENDTC in EC domain | Label: End Date/Time of Treatment | Description: The date/time when administration of the treatment indicated by ECTRT and ECDOSE ended. For administrations considered given at a point in time (e.g., oral tablet, pre-filled syringe injection), where only an administration date/time is collected, ECSTDTC should be copied to ECENDTC as the standard representation. | Role: Timing | Type: Char | Core: Exp | Class: Interventions",
  "EC.ECSTDY": "ECSTDY in EC domain | Label: Study Day of Start of Treatment | Description: Study day of ECSTDTC relative to the sponsor-defined DM.RFSTDTC. | Role: Timing | Type: Num | Core: Perm | Class: Interventions",
  "EC.ECENDY": "ECENDY in EC domain | Label: Study Day of End of Treatment | Description: Study day of ECENDTC relative to the sponsor-defined DM.RFSTDTC. | Role: Timing | Type: Num | Core: Perm | Class: Interventions",
  "EC.ECDUR": "ECDUR in EC domain | Label: Duration of Treatment | Description: Collected duration of administration. Used only if collected on the CRF and not derived from start and end date/times. | Role: Timing | Type: Char | Core: Perm | Class: Interventions",
  "EC.ECTPT": "ECTPT in EC domain | Label: Planned Time Point Name | Description: Text description of time when administration should occur. This may be represented as an elapsed time relative to a fixed reference point, such as time of last dose. See ECTPTNUM and ECTPTREF. | Role: Timing | Type: Char | Core: Perm | Class: Interventions",
  "EC.ECTPTNUM": "ECTPTNUM in EC domain | Label: Planned Time Point Number | Description: Numerical version of ECTPT to aid in sorting. | Role: Timing | Type: Num | Core: Perm | Class: Interventions",
  "EC.ECELTM": "ECELTM in EC domain | Label: Planned Elapsed Time from Time Point Ref | Description: Planned elapsed time relative to the planned fixed reference (ECTPTREF). This variable is useful where there are repetitive measures. Not a clock time. | Role: Timing | Type: Char | Core: Perm | Class: Interventions",
  "EC.ECTPTREF": "ECTPTREF in EC domain | Label: Time Point Reference | Description: Name of the fixed reference point referred to by ECELTM, ECTPTNUM, and ECTPT. Examples: \"PREVIOUS DOSE\", \"PREVIOUS MEAL\". | Role: Timing | Type: Char | Core: Perm | Class: Interventions",
  "EC.ECRFTDTC": "ECRFTDTC in EC domain | Label: Date/Time of Reference Time Point | Description: Date/time for a fixed reference time point defined by ECTPTREF. | Role: Timing | Type: Char | Core: Perm | Class: Interventions",
  "EX.STUDYID": "STUDYID in EX domain | Label: Study Identifier | Description: Unique identifier for a study. | Role: Identifier | Type: Char | Core: Req | Class: Interventions",
  "EX.DOMAIN": "DOMAIN in EX domain | Label: Domain Abbreviation | Description: Two-character abbreviation for the domain. | Role: Identifier | Type: Char | Core: Req | Class: Interventions",
  "EX.USUBJID": "USUBJID in EX domain | Label: Unique Subject Identifier | Description: Identifier used to uniquely identify a subject across all studies for all applications or submissions involving the product. | Role: Identifier | Type: Char | Core: Req | Class: Interventions",
  "EX.EXSEQ": "EXSEQ in EX domain | Label: Sequence Number | Description: Sequence number given to ensure uniqueness of subject records within a domain. May be any valid number. | Role: Identifier | Type: Num | Core: Req | Class: Interventions",
  "EX.EXGRPID": "EXGRPID in EX domain | Label: Group ID | Description: Used to tie together a block of related records in a single domain for a subject. | Role: Identifier | Type: Char | Core: Perm | Class: Interventions",
  "EX.EXREFID": "EXREFID in EX domain | Label: Reference ID | Description: Internal or external identifier (e.g., kit number, bottle label, vial identifier). | Role: Identifier | Type: Char | Core: Perm | Class: Interventions",
  "EX.EXSPID": "EXSPID in EX domain | Label: Sponsor-Defined Identifier | Description: Sponsor-defined reference number. May be preprinted on the CRF as an explicit line identifier or defined in the sponsor's operational database. Example: Line number on a CRF page. | Role: Identifier | Type: Char | Core: Perm | Class: Interventions",
  "EX.EXLNKID": "EXLNKID in EX domain | Label: Link ID | Description: Identifier used to link related records across domains. | Role: Identifier | Type: Char | Core: Perm | Class: Interventions",
  "EX.EXLNKGRP": "EXLNKGRP in EX domain | Label: Link Group ID | Description: Identifier used to link related, grouped records across domains. | Role: Identifier | Type: Char | Core: Perm | Class: Interventions",
  "EX.EXTRT": "EXTRT in EX domain | Label: Name of Treatment | Description: Name of the protocol-specified study treatment given during the dosing period for the observation. | Role: Topic | Type: Char | Core: Req | Class: Interventions",
  "EX.EXCAT": "EXCAT in EX domain | Label: Category of Treatment | Description: Used to define a category of EXTRT values. | Role: Grouping Qualifier | Type: Char | Core: Perm | Class: Interventions",
  "EX.EXSCAT": "EXSCAT in EX domain | Label: Subcategory of Treatment | Description: A further categorization of EXCAT values. | Role: Grouping Qualifier | Type: Char | Core: Perm | Class: Interventions",
  "EX.EXDOSE": "EXDOSE in EX domain | Label: Dose | Description: Amount of EXTRT when numeric. Not populated when EXDOSTXT is populated. | Role: Record Qualifier | Type: Num | Core: Exp | Class: Interventions",
  "EX.EXDOSTXT": "EXDOSTXT in EX domain | Label: Dose Description | Description: Amount of EXTRT when non-numeric. Dosing amounts or a range of dosing information collected in text form. Example: \"200-400\". Not populated when EXDOSE is populated. | Role: Record Qualifier | Type: Char | Core: Perm | Class: Interventions",
  "EX.EXDOSU": "EXDOSU in EX domain | Label: Dose Units | Description: Units for EXDOSE, EXDOSTOT, or EXDOSTXT representing protocol-specified values. Examples: \"ng\", \"mg\", \"mg/kg\", \"mg/m2\". | Role: Variable Qualifier | Type: Char | Core: Exp | Class: Interventions",
  "EX.EXDOSFRM": "EXDOSFRM in EX domain | Label: Dose Form | Description: Dose form for EXTRT. Examples: \"TABLET\", \"LOTION\". | Role: Variable Qualifier | Type: Char | Core: Exp | Class: Interventions",
  "EX.EXDOSFRQ": "EXDOSFRQ in EX domain | Label: Dosing Frequency per Interval | Description: Usually expressed as the number of repeated administrations of EXDOSE within a specific time period. Examples: \"Q2H\", \"QD\", \"BID\". | Role: Record Qualifier | Type: Char | Core: Perm | Class: Interventions",
  "EX.EXDOSRGM": "EXDOSRGM in EX domain | Label: Intended Dose Regimen | Description: Text description of the intended schedule or regimen for the Intervention. Example: \"TWO WEEKS ON, TWO WEEKS OFF\". | Role: Record Qualifier | Type: Char | Core: Perm | Class: Interventions",
  "EX.EXROUTE": "EXROUTE in EX domain | Label: Route of Administration | Description: Route of administration for the intervention. Examples: \"ORAL\", \"INTRAVENOUS\". | Role: Variable Qualifier | Type: Char | Core: Perm | Class: Interventions",
  "EX.EXLOT": "EXLOT in EX domain | Label: Lot Number | Description: Lot number of the intervention product. | Role: Record Qualifier | Type: Char | Core: Perm | Class: Interventions",
  "EX.EXLOC": "EXLOC in EX domain | Label: Location of Dose Administration | Description: Specifies location of administration. Examples: \"ARM\", \"LIP\". | Role: Record Qualifier | Type: Char | Core: Perm | Class: Interventions",
  "EX.EXLAT": "EXLAT in EX domain | Label: Laterality | Description: Qualifier for anatomical location further detailing laterality of the intervention administration. Examples: \"LEFT\", \"RIGHT\". | Role: Variable Qualifier | Type: Char | Core: Perm | Class: Interventions",
  "EX.EXDIR": "EXDIR in EX domain | Label: Directionality | Description: Qualifier for anatomical location further detailing directionality. Examples: \"ANTERIOR\", \"LOWER\", \"PROXIMAL\", \"UPPER\". | Role: Variable Qualifier | Type: Char | Core: Perm | Class: Interventions",
  "EX.EXFAST": "EXFAST in EX domain | Label: Fasting Status | Description: Indicator used to identify fasting status. Examples: \"Y\", \"N\". | Role: Record Qualifier | Type: Char | Core: Perm | Class: Interventions",
  "EX.EXADJ": "EXADJ in EX domain | Label: Reason for Dose Adjustment | Description: Describes reason or explanation of why a dose is adjusted. | Role: Record Qualifier | Type: Char | Core: Perm | Class: Interventions",
  "EX.TAETORD": "TAETORD in EX domain | Label: Planned Order of Element within Arm | Description: Number that gives the planned order of the element within the arm. | Role: Timing | Type: Num | Core: Perm | Class: Interventions",
  "EX.EPOCH": "EPOCH in EX domain | Label: Epoch | Description: Trial epoch of the exposure record. Examples: \"RUN-IN\", \"TREATMENT\". | Role: Timing | Type: Char | Core: Perm | Class: Interventions",
  "EX.EXSTDTC": "EXSTDTC in EX domain | Label: Start Date/Time of Treatment | Description: The date/time when administration of the treatment indicated by EXTRT and EXDOSE began. | Role: Timing | Type: Char | Core: Exp | Class: Interventions",
  "EX.EXENDTC": "EXENDTC in EX domain | Label: End Date/Time of Treatment | Description: The date/time when administration of the treatment indicated by EXTRT and EXDOSE ended. For administrations considered given at a point in time (e.g., oral tablet, pre-filled syringe injection), where only an administration date/time is collected, EXSTDTC should be copied to EXENDTC as the standard representation. | Role: Timing | Type: Char | Core: Exp | Class: Interventions",
  "EX.EXSTDY": "EXSTDY in EX domain | Label: Study Day of Start of Treatment | Description: Study day of EXSTDTC relative to DM.RFSTDTC. | Role: Timing | Type: Num | Core: Perm | Class: Interventions",
  "EX.EXENDY": "EXENDY in EX domain | Label: Study Day of End of Treatment | Description: Study day of EXENDTC relative to DM.RFSTDTC. | Role: Timing | Type: Num | Core: Perm | Class: Interventions",
  "EX.EXDUR": "EXDUR in EX domain | Label: Duration of Treatment | Description: Collected duration of administration. Used only if collected on the CRF and not derived from start and end date/times. | Role: Timing | Type: Char | Core: Perm | Class: Interventions",
  "EX.EXTPT": "EXTPT in EX domain | Label: Planned Time Point Name | Description: Text description of time when administration should occur. This may be represented as an elapsed time relative to a fixed reference point, such as time of last dose. See EXTPTNUM and EXTPTREF. | Role: Timing | Type: Char | Core: Perm | Class: Interventions",
  "EX.EXTPTNUM": "EXTPTNUM in EX domain | Label: Planned Time Point Number | Description: Numerical version of EXTPT to aid in sorting. | Role: Timing | Type: Num | Core: Perm | Class: Interventions",
  "EX.EXELTM": "EXELTM in EX domain | Label: Planned Elapsed Time from Time Point Ref | Description: Planned elapsed time relative to the planned fixed reference (EXTPTREF). This variable is useful where there are repetitive measures. Not a clock time. | Role: Timing | Type: Char | Core: Perm | Class: Interventions",
  "EX.EXTPTREF": "EXTPTREF in EX domain | Label: Time Point Reference | Description: Name of the fixed reference point referred to by EXELTM, EXTPTNUM, and EXTPT. Examples: PREVIOUS DOSE, PREVIOUS MEAL. | Role: Timing | Type: Char | Core: Perm | Class: Interventions",
  "EX.EXRFTDTC": "EXRFTDTC in EX domain | Label: Date/Time of Reference Time Point | Description: Date/time for a fixed reference time point defined by EXTPTREF. | Role: Timing | Type: Char | Core: Perm | Class: Interventions",
  "ML.STUDYID": "STUDYID in ML domain | Label: Study Identifier | Description: Unique identifier for a study. | Role: Identifier | Type: Char | Core: Req | Class: Interventions",
  "ML.DOMAIN": "DOMAIN in ML domain | Label: Domain Abbreviation | Description: Two-character abbreviation for the domain. | Role: Identifier | Type: Char | Core: Req | Class: Interventions",
  "ML.USUBJID": "USUBJID in ML domain | Label: Unique Subject Identifier | Description: Identifier used to uniquely identify a subject across all studies for all applications or submissions involving the product. | Role: Identifier | Type: Char | Core: Req | Class: Interventions",
  "ML.MLSEQ": "MLSEQ in ML domain | Label: Sequence Number | Description: Sequence number given to ensure uniqueness of subject records within a domain. May be any valid number. | Role: Identifier | Type: Num | Core: Req | Class: Interventions",
  "ML.MLGRPID": "MLGRPID in ML domain | Label: Group ID | Description: Used to tie together a block of related records in a single domain for a subject. | Role: Identifier | Type: Char | Core: Perm | Class: Interventions",
  "ML.MLSPID": "MLSPID in ML domain | Label: Sponsor-Defined Identifier | Description: Sponsor-defined reference number. Examples: a number preprinted on the CRF as an explicit line identifier, record identifier defined in the sponsor's operational database. | Role: Identifier | Type: Char | Core: Perm | Class: Interventions",
  "ML.MLTRT": "MLTRT in ML domain | Label: Name of Meal | Description: Verbatim food product name that is either preprinted or collected on a CRF. | Role: Topic | Type: Char | Core: Req | Class: Interventions",
  "ML.MLCAT": "MLCAT in ML domain | Label: Category for Meal | Description: Used to define a category of MLTRT values. | Role: Grouping Qualifier | Type: Char | Core: Perm | Class: Interventions",
  "ML.MLSCAT": "MLSCAT in ML domain | Label: Subcategory for Meal | Description: Used to define a further categorization of MLCAT values. | Role: Grouping Qualifier | Type: Char | Core: Perm | Class: Interventions",
  "ML.MLPRESP": "MLPRESP in ML domain | Label: ML Pre-specified | Description: Used when a specific meal is prespecified on a CRF. Values should be \"Y\" or null. | Role: Variable Qualifier | Type: Char | Core: Perm | Class: Interventions",
  "ML.MLOCCUR": "MLOCCUR in ML domain | Label: ML Occurrence | Description: Used to record whether a prespecified meal occurred when information about the occurrence of a specific meal is solicited. | Role: Record Qualifier | Type: Char | Core: Perm | Class: Interventions",
  "ML.MLSTAT": "MLSTAT in ML domain | Label: Completion Status | Description: Used to indicate when a question about the occurrence of a prespecified meal was not answered. Should be null or have a value of \"NOT DONE\". | Role: Record Qualifier | Type: Char | Core: Perm | Class: Interventions",
  "ML.MLREASND": "MLREASND in ML domain | Label: Reason Meal Not Collected | Description: Describes the reason a response to a question about the occurrence of a meal was not collected. Used in conjunction with MLSTAT when value is \"NOT DONE\". | Role: Record Qualifier | Type: Char | Core: Perm | Class: Interventions",
  "ML.MLDOSE": "MLDOSE in ML domain | Label: Dose | Description: Amount of MLTRT consumed. Not populated when MLDOSTXT is populated. | Role: Record Qualifier | Type: Num | Core: Perm | Class: Interventions",
  "ML.MLDOSTXT": "MLDOSTXT in ML domain | Label: Dose Description | Description: Amount description of MLTRT consumed, collected in text form. Not populated when MLDOSE is populated. Examples: \"<1 per day\", \"200-400\". | Role: Record Qualifier | Type: Char | Core: Perm | Class: Interventions",
  "ML.MLDOSU": "MLDOSU in ML domain | Label: Dose Units | Description: Units for MLDOSE, MLDOSTOT, or MLDOSTXT. | Role: Variable Qualifier | Type: Char | Core: Perm | Class: Interventions",
  "ML.MLDOSFRM": "MLDOSFRM in ML domain | Label: Dose Form | Description: Dosage form for MLTRT. Example: \"BAR, CHEWABLE\". | Role: Variable Qualifier | Type: Char | Core: Perm | Class: Interventions",
  "ML.VISITNUM": "VISITNUM in ML domain | Label: Visit Number | Description: Clinical encounter number. Numeric version of VISIT, used for sorting. | Role: Timing | Type: Num | Core: Perm | Class: Interventions",
  "ML.VISIT": "VISIT in ML domain | Label: Visit Name | Description: Protocol-defined description of a clinical encounter. | Role: Timing | Type: Char | Core: Perm | Class: Interventions",
  "ML.VISITDY": "VISITDY in ML domain | Label: Planned Study Day of Visit | Description: Planned study day of VISIT. Should be an integer. | Role: Timing | Type: Num | Core: Perm | Class: Interventions",
  "ML.TAETORD": "TAETORD in ML domain | Label: Planned Order of Element within Arm | Description: Number that gives the planned order of the element within the arm for the element in which the meal started. | Role: Timing | Type: Num | Core: Perm | Class: Interventions",
  "ML.EPOCH": "EPOCH in ML domain | Label: Epoch | Description: Epoch associated with the start date/time of the meal. | Role: Timing | Type: Char | Core: Perm | Class: Interventions",
  "ML.MLDTC": "MLDTC in ML domain | Label: Date/Time of Collection | Description: Collection date and time of the meal represented in ISO 8601 character format. | Role: Timing | Type: Char | Core: Perm | Class: Interventions",
  "ML.MLSTDTC": "MLSTDTC in ML domain | Label: Start Date/Time of Meal | Description: Start date/time of the meal represented in ISO 8601 character format. | Role: Timing | Type: Char | Core: Perm | Class: Interventions",
  "ML.MLENDTC": "MLENDTC in ML domain | Label: End Date/Time of Meal | Description: End date/time of the meal represented in ISO 8601 character format. | Role: Timing | Type: Char | Core: Perm | Class: Interventions",
  "ML.MLDY": "MLDY in ML domain | Label: Study Day of Visit/Collection/Exam | Description: Actual study day of the visit/collection expressed in integer days relative to the sponsor-defined RFSTDTC in Demographics. | Role: Timing | Type: Num | Core: Perm | Class: Interventions",
  "ML.MLSTDY": "MLSTDY in ML domain | Label: Study Day of Start of Meal | Description: Actual study day of start of the meal expressed in integer days relative to sponsor-defined RFSTDTC in Demographics. | Role: Timing | Type: Num | Core: Perm | Class: Interventions",
  "ML.MLENDY": "MLENDY in ML domain | Label: Study Day of End of Meal | Description: Actual study day of end of the meal expressed in integer days relative to the sponsor-defined RFSTDTC in Demographics. | Role: Timing | Type: Num | Core: Perm | Class: Interventions",
  "ML.MLDUR": "MLDUR in ML domain | Label: Duration of Meal | Description: Collected duration of the meal represented in ISO 8601 character format. Used only if collected on the CRF and not derived. | Role: Timing | Type: Char | Core: Perm | Class: Interventions",
  "ML.MLTPT": "MLTPT in ML domain | Label: Planned Time Point Name | Description: Text description of time when a measurement or observation should be taken as defined in the protocol. This may be represented as an elapsed time relative to a fixed reference point. See MLTPTNUM and MLTPTREF. | Role: Timing | Type: Char | Core: Perm | Class: Interventions",
  "ML.MLTPTNUM": "MLTPTNUM in ML domain | Label: Planned Time Point Number | Description: Numeric version of planned time point used in sorting. | Role: Timing | Type: Num | Core: Perm | Class: Interventions",
  "ML.MLELTM": "MLELTM in ML domain | Label: Planned Elapsed Time from Time Point Ref | Description: Planned elapsed time (in ISO 8601) relative to the planned fixed reference (MLTPTREF). This variable is useful when there are repetitive measures. Not a clock time or a date/time variable. Represented as an ISO 8601 duration. | Role: Timing | Type: Char | Core: Perm | Class: Interventions",
  "ML.MLTPTREF": "MLTPTREF in ML domain | Label: Time Point Reference | Description: Description of the fixed reference point referred to by MLELTM, MLTPTNUM, and MLTPT. | Role: Timing | Type: Char | Core: Perm | Class: Interventions",
  "ML.MLRFTDTC": "MLRFTDTC in ML domain | Label: Date/Time of Reference Time Point | Description: Date/time for a fixed reference time point defined by MLTPTREF in ISO 8601 character format. | Role: Timing | Type: Char | Core: Perm | Class: Interventions",
  "ML.MIDS": "MIDS in ML domain | Label: Disease Milestone Instance Name | Description: The name of a specific instance of a disease milestone type (MIDSTYPE) described in the Trial Disease Milestones dataset. This should be unique within a subject. Used only in conjunction with RELMIDS and MIDSDTC. | Role: Timing | Type: Char | Core: Perm | Class: Interventions",
  "ML.RELMIDS": "RELMIDS in ML domain | Label: Temporal Relation to Milestone Instance | Description: The temporal relationship of the observation to the disease milestone instance name in MIDS. Examples: \"IMMEDIATELY BEFORE\", \"AT TIME OF\", \"AFTER\". | Role: Timing | Type: Char | Core: Perm | Class: Interventions",
  "ML.MIDSDTC": "MIDSDTC in ML domain | Label: Disease Milestone Instance Date/Time | Description: The start date/time of the disease milestone instance name in MIDS, in ISO 8601 format. | Role: Timing | Type: Char | Core: Perm | Class: Interventions",
  "PR.STUDYID": "STUDYID in PR domain | Label: Study Identifier | Description: Unique identifier for a study. | Role: Identifier | Type: Char | Core: Req | Class: Interventions",
  "PR.DOMAIN": "DOMAIN in PR domain | Label: Domain Abbreviation | Description: Two-character abbreviation for the domain. | Role: Identifier | Type: Char | Core: Req | Class: Interventions",
  "PR.USUBJID": "USUBJID in PR domain | Label: Unique Subject Identifier | Description: Identifier used to uniquely identify a subject across all studies for all applications or submissions involving the product. | Role: Identifier | Type: Char | Core: Req | Class: Interventions",
  "PR.PRSEQ": "PRSEQ in PR domain | Label: Sequence Number | Description: Sequence number given to ensure uniqueness of subject records within a domain. May be any valid number. | Role: Identifier | Type: Num | Core: Req | Class: Interventions",
  "PR.PRGRPID": "PRGRPID in PR domain | Label: Group ID | Description: Used to link together a block of related records within a subject in a domain. | Role: Identifier | Type: Char | Core: Perm | Class: Interventions",
  "PR.PRSPID": "PRSPID in PR domain | Label: Sponsor-Defined Identifier | Description: Sponsor-defined identifier. Example: preprinted line identifier on a CRF, record identifier defined in the sponsor's operational database. | Role: Identifier | Type: Char | Core: Perm | Class: Interventions",
  "PR.PRLNKID": "PRLNKID in PR domain | Label: Link ID | Description: Used to facilitate identification of relationships between records. | Role: Identifier | Type: Char | Core: Perm | Class: Interventions",
  "PR.PRLNKGRP": "PRLNKGRP in PR domain | Label: Link Group ID | Description: Used to facilitate identification of relationships between records. | Role: Identifier | Type: Char | Core: Perm | Class: Interventions",
  "PR.PRTRT": "PRTRT in PR domain | Label: Reported Name of Procedure | Description: Name of procedure performed, either preprinted or collected on a CRF. | Role: Topic | Type: Char | Core: Req | Class: Interventions",
  "PR.PRDECOD": "PRDECOD in PR domain | Label: Standardized Procedure Name | Description: Standardized or dictionary-derived name of PRTRT. If the codelist \"PROCEDUR\" is not used, the sponsor is expected to provide the dictionary name and version used to map the terms in the external codelist element in the Define-XML document. If an intervention term does not have a decode value, then PRDECOD will be null. | Role: Synonym Qualifier | Type: Char | Core: Perm | Class: Interventions",
  "PR.PRCAT": "PRCAT in PR domain | Label: Category | Description: Used to define a category of procedure values. | Role: Grouping Qualifier | Type: Char | Core: Perm | Class: Interventions",
  "PR.PRSCAT": "PRSCAT in PR domain | Label: Subcategory | Description: Used to define a further categorization of PRCAT values. | Role: Grouping Qualifier | Type: Char | Core: Perm | Class: Interventions",
  "PR.PRPRESP": "PRPRESP in PR domain | Label: Pre-specified | Description: Used when a specific procedure is pre-specified on a CRF. Values should be \"Y\" or null. | Role: Variable Qualifier | Type: Char | Core: Perm | Class: Interventions",
  "PR.PROCCUR": "PROCCUR in PR domain | Label: Occurrence | Description: Used to record whether a prespecified procedure occurred when information about the occurrence of a specific procedure is solicited. | Role: Record Qualifier | Type: Char | Core: Perm | Class: Interventions",
  "PR.PRINDC": "PRINDC in PR domain | Label: Indication | Description: Denotes the indication for the procedure (e.g., why the procedure was performed). | Role: Record Qualifier | Type: Char | Core: Perm | Class: Interventions",
  "PR.PRDOSE": "PRDOSE in PR domain | Label: Dose | Description: Amount of PRTRT administered. Not populated when PRDOSTXT is populated. | Role: Record Qualifier | Type: Num | Core: Perm | Class: Interventions",
  "PR.PRDOSTXT": "PRDOSTXT in PR domain | Label: Dose Description | Description: Dosing information collected in text form. Examples: \"<1\", \"200-400\". Not populated when PRDOSE is populated. | Role: Record Qualifier | Type: Char | Core: Perm | Class: Interventions",
  "PR.PRDOSU": "PRDOSU in PR domain | Label: Dose Units | Description: Units for PRDOSE, PRDOSTOT, or PRDOSTXT. | Role: Variable Qualifier | Type: Char | Core: Perm | Class: Interventions",
  "PR.PRDOSFRM": "PRDOSFRM in PR domain | Label: Dose Form | Description: Dose form for PRTRT. | Role: Variable Qualifier | Type: Char | Core: Perm | Class: Interventions",
  "PR.PRDOSFRQ": "PRDOSFRQ in PR domain | Label: Dosing Frequency per Interval | Description: Usually expressed as the number of doses given per a specific interval. | Role: Record Qualifier | Type: Char | Core: Perm | Class: Interventions",
  "PR.PRDOSRGM": "PRDOSRGM in PR domain | Label: Intended Dose Regimen | Description: Text description of the intended schedule or regimen for the procedure. | Role: Record Qualifier | Type: Char | Core: Perm | Class: Interventions",
  "PR.PRROUTE": "PRROUTE in PR domain | Label: Route of Administration | Description: Route of administration for PRTRT. | Role: Variable Qualifier | Type: Char | Core: Perm | Class: Interventions",
  "PR.PRLOC": "PRLOC in PR domain | Label: Location of Procedure | Description: Anatomical location of a procedure. | Role: Record Qualifier | Type: Char | Core: Perm | Class: Interventions",
  "PR.PRLAT": "PRLAT in PR domain | Label: Laterality | Description: Qualifier for anatomical location or specimen further detailing laterality. | Role: Variable Qualifier | Type: Char | Core: Perm | Class: Interventions",
  "PR.PRDIR": "PRDIR in PR domain | Label: Directionality | Description: Qualifier for anatomical location or specimen further detailing directionality. | Role: Variable Qualifier | Type: Char | Core: Perm | Class: Interventions",
  "PR.PRPORTOT": "PRPORTOT in PR domain | Label: Portion or Totality | Description: Qualifier for anatomical location or specimen further detailing the distribution, which means arrangement of, apportioning of. | Role: Variable Qualifier | Type: Char | Core: Perm | Class: Interventions",
  "PR.VISITNUM": "VISITNUM in PR domain | Label: Visit Number | Description: Clinical encounter number. Numeric version of VISIT, used for sorting. | Role: Timing | Type: Num | Core: Perm | Class: Interventions",
  "PR.VISIT": "VISIT in PR domain | Label: Visit Name | Description: Protocol-defined description of a clinical encounter. | Role: Timing | Type: Char | Core: Perm | Class: Interventions",
  "PR.VISITDY": "VISITDY in PR domain | Label: Planned Study Day of Visit | Description: Planned study day of VISIT. Should be an integer. | Role: Timing | Type: Num | Core: Perm | Class: Interventions",
  "PR.TAETORD": "TAETORD in PR domain | Label: Planned Order of Element within Arm | Description: Number that gives the planned order of the element within the arm. | Role: Timing | Type: Num | Core: Perm | Class: Interventions",
  "PR.EPOCH": "EPOCH in PR domain | Label: Epoch | Description: Epoch associated with the start date/time of the procedure. | Role: Timing | Type: Char | Core: Perm | Class: Interventions",
  "PR.PRSTDTC": "PRSTDTC in PR domain | Label: Start Date/Time of Procedure | Description: Start date/time of the procedure represented in ISO 8601 character format. | Role: Timing | Type: Char | Core: Exp | Class: Interventions",
  "PR.PRENDTC": "PRENDTC in PR domain | Label: End Date/Time of Procedure | Description: End date/time of the procedure represented in ISO 8601 character format. | Role: Timing | Type: Char | Core: Perm | Class: Interventions",
  "PR.PRSTDY": "PRSTDY in PR domain | Label: Study Day of Start of Procedure | Description: Study day of start of procedure expressed in integer days relative to the sponsor-defined RFSTDTC in Demographics. | Role: Timing | Type: Num | Core: Perm | Class: Interventions",
  "PR.PRENDY": "PRENDY in PR domain | Label: Study Day of End of Procedure | Description: Study day of end of procedure expressed in integer days relative to the sponsor-defined RFSTDTC in Demographics. | Role: Timing | Type: Num | Core: Perm | Class: Interventions",
  "PR.PRDUR": "PRDUR in PR domain | Label: Duration of Procedure | Description: Collected duration of a procedure represented in ISO 8601 character format. Used only if collected on the CRF and not derived from start and end date/times. | Role: Timing | Type: Char | Core: Perm | Class: Interventions",
  "PR.PRTPT": "PRTPT in PR domain | Label: Planned Time Point Name | Description: Text description of time when a procedure should be performed. This may be represented as an elapsed time relative to a fixed reference point, such as time of last dose. See PRTPTNUM and PRTPTREF. | Role: Timing | Type: Char | Core: Perm | Class: Interventions",
  "PR.PRTPTNUM": "PRTPTNUM in PR domain | Label: Planned Time Point Number | Description: Numerical version of planned time point used in sorting. | Role: Timing | Type: Num | Core: Perm | Class: Interventions",
  "PR.PRELTM": "PRELTM in PR domain | Label: Planned Elapsed Time from Time Point Ref | Description: Planned elapsed time in ISO 8601 format relative to a planned fixed reference (PRTPTREF). This variable is useful where there are repetitive measures. Not a clock time or a date/time variable, but an interval, represented as ISO duration. | Role: Timing | Type: Char | Core: Perm | Class: Interventions",
  "PR.PRTPTREF": "PRTPTREF in PR domain | Label: Time Point Reference | Description: Description of the fixed reference point referred to by PRELTM, PRTPTNUM, and PRTPT. | Role: Timing | Type: Char | Core: Perm | Class: Interventions",
  "PR.PRRFTDTC": "PRRFTDTC in PR domain | Label: Date/Time of Reference Time Point | Description: Date/time for a fixed reference time point defined by PRTRTREF in ISO 8601 character format. | Role: Timing | Type: Char | Core: Perm | Class: Interventions",
  "PR.PRSTRTPT": "PRSTRTPT in PR domain | Label: Start Relative to Reference Time Point | Description: Identifies the start of the observation as being before or after the sponsor-defined reference time point defined by variable PRSTTPT. \\n Not all values of the codelist are allowable for this variable. See Section 4.4.7, Use of Relative Timing Variables. | Role: Timing | Type: Char | Core: Perm | Class: Interventions",
  "PR.PRSTTPT": "PRSTTPT in PR domain | Label: Start Reference Time Point | Description: Description or date/time in ISO 8601 character format of the sponsor-defined reference point referred to by PRSTRTPT. Examples: \"2003-12-15\", \"VISIT 1\". | Role: Timing | Type: Char | Core: Perm | Class: Interventions",
  "PR.PRENRTPT": "PRENRTPT in PR domain | Label: End Relative to Reference Time Point | Description: Identifies the end of the observation as being before or after the sponsor-defined reference time point defined by variable PRENTPT. \\n Not all values of the codelist are allowable for this variable. See Section 4.4.7, Use of Relative Timing Variables. | Role: Timing | Type: Char | Core: Perm | Class: Interventions",
  "PR.PRENTPT": "PRENTPT in PR domain | Label: End Reference Time Point | Description: Description or date/time in ISO 8601 character format of the sponsor-defined reference point referred to by PRENRTPT. Examples: \"2003-12-25\", \"VISIT 2\". | Role: Timing | Type: Char | Core: Perm | Class: Interventions",
  "SU.STUDYID": "STUDYID in SU domain | Label: Study Identifier | Description: Unique identifier for a study. | Role: Identifier | Type: Char | Core: Req | Class: Interventions",
  "SU.DOMAIN": "DOMAIN in SU domain | Label: Domain Abbreviation | Description: Two-character abbreviation for the domain. | Role: Identifier | Type: Char | Core: Req | Class: Interventions",
  "SU.USUBJID": "USUBJID in SU domain | Label: Unique Subject Identifier | Description: Identifier used to uniquely identify a subject across all studies for all applications or submissions involving the product. | Role: Identifier | Type: Char | Core: Req | Class: Interventions",
  "SU.SUSEQ": "SUSEQ in SU domain | Label: Sequence Number | Description: Sequence number given to ensure uniqueness of subject records within a domain. May be any valid number. | Role: Identifier | Type: Num | Core: Req | Class: Interventions",
  "SU.SUGRPID": "SUGRPID in SU domain | Label: Group ID | Description: Used to tie together a block of related records in a single domain for a subject. | Role: Identifier | Type: Char | Core: Perm | Class: Interventions",
  "SU.SUSPID": "SUSPID in SU domain | Label: Sponsor-Defined Identifier | Description: Sponsor-defined reference number. May be preprinted on the CRF as an explicit line identifier or defined in the sponsor's operational database. Example: Line number on a Tobacco & Alcohol Use CRF page. | Role: Identifier | Type: Char | Core: Perm | Class: Interventions",
  "SU.SUTRT": "SUTRT in SU domain | Label: Reported Name of Substance | Description: Substance name. Examples: \"CIGARETTES\", \"COFFEE\". | Role: Topic | Type: Char | Core: Req | Class: Interventions",
  "SU.SUMODIFY": "SUMODIFY in SU domain | Label: Modified Substance Name | Description: If SUTRT is modified, then the modified text is placed here. | Role: Synonym Qualifier | Type: Char | Core: Perm | Class: Interventions",
  "SU.SUDECOD": "SUDECOD in SU domain | Label: Standardized Substance Name | Description: Standardized or dictionary-derived text description of SUTRT or SUMODIFY if the sponsor chooses to code the substance use. The sponsor is expected to provide the dictionary name and version used to map the terms utilizing the external codelist element in the Define-XML document. | Role: Synonym Qualifier | Type: Char | Core: Perm | Class: Interventions",
  "SU.SUCAT": "SUCAT in SU domain | Label: Category for Substance Use | Description: Used to define a category of related records. Examples: \"TOBACCO\", \"ALCOHOL\", or \"CAFFEINE\". | Role: Grouping Qualifier | Type: Char | Core: Perm | Class: Interventions",
  "SU.SUSCAT": "SUSCAT in SU domain | Label: Subcategory for Substance Use | Description: A further categorization of substance use. Examples: \"CIGARS\", \"CIGARETTES\", \"BEER\", \"WINE\". | Role: Grouping Qualifier | Type: Char | Core: Perm | Class: Interventions",
  "SU.SUPRESP": "SUPRESP in SU domain | Label: SU Pre-Specified | Description: Used to indicate whether (\"Y\"/null) information about the use of a specific substance was solicited on the CRF. | Role: Variable Qualifier | Type: Char | Core: Perm | Class: Interventions",
  "SU.SUOCCUR": "SUOCCUR in SU domain | Label: SU Occurrence | Description: When the use of specific substances is solicited, SUOCCUR is used to indicate whether (\"Y\"/\"N\") a particular prespecified substance was used. Values are null for substances not specifically solicited. | Role: Record Qualifier | Type: Char | Core: Perm | Class: Interventions",
  "SU.SUSTAT": "SUSTAT in SU domain | Label: Completion Status | Description: When the use of prespecified substances is solicited, the completion status indicates that there was no response to the question about the prespecified substance. When there is no prespecified list on the CRF, then the completion status indicates that substance use was not assessed for the subject. | Role: Record Qualifier | Type: Char | Core: Perm | Class: Interventions",
  "SU.SUREASND": "SUREASND in SU domain | Label: Reason Substance Use Not Collected | Description: Describes the reason substance use was not collected. Used in conjunction with SUSTAT when value of SUSTAT is \"NOT DONE\". | Role: Record Qualifier | Type: Char | Core: Perm | Class: Interventions",
  "SU.SUCLAS": "SUCLAS in SU domain | Label: Substance Use Class | Description: Substance use class. May be obtained from coding. When coding to a single class, populate with class value. If using a dictionary and coding to multiple classes, then follow Section 4.2.8.3, Multiple Values for a Non-result Qualifier Variable, or omit SUCLAS. | Role: Variable Qualifier | Type: Char | Core: Perm | Class: Interventions",
  "SU.SUCLASCD": "SUCLASCD in SU domain | Label: Substance Use Class Code | Description: Code corresponding to SUCLAS. May be obtained from coding. | Role: Variable Qualifier | Type: Char | Core: Perm | Class: Interventions",
  "SU.SUDOSE": "SUDOSE in SU domain | Label: Substance Use Consumption | Description: Amount of SUTRT consumed. Not populated if SUDOSTXT is populated. | Role: Record Qualifier | Type: Num | Core: Perm | Class: Interventions",
  "SU.SUDOSTXT": "SUDOSTXT in SU domain | Label: Substance Use Consumption Text | Description: Substance use consumption amounts or a range of consumption information collected in text form. Not populated if SUDOSE is populated. | Role: Record Qualifier | Type: Char | Core: Perm | Class: Interventions",
  "SU.SUDOSU": "SUDOSU in SU domain | Label: Consumption Units | Description: Units for SUDOSE, SUDOSTOT, or SUDOSTXT. Examples: \"oz\", \"CIGARETTE\", \"PACK\", \"g\". | Role: Variable Qualifier | Type: Char | Core: Perm | Class: Interventions",
  "SU.SUDOSFRM": "SUDOSFRM in SU domain | Label: Dose Form | Description: Dose form for SUTRT. Examples: \"INJECTABLE\", \"LIQUID\", \"POWDER\". | Role: Variable Qualifier | Type: Char | Core: Perm | Class: Interventions",
  "SU.SUDOSFRQ": "SUDOSFRQ in SU domain | Label: Use Frequency Per Interval | Description: Usually expressed as the number of repeated administrations of SUDOSE within a specific time period. Example: \"Q24H\" (every day). | Role: Variable Qualifier | Type: Char | Core: Perm | Class: Interventions",
  "SU.SUDOSTOT": "SUDOSTOT in SU domain | Label: Total Daily Consumption | Description: Total daily use of SUTRT using the units in SUDOSU. Used when dosing is collected as total daily dose. If a sponsor needs to aggregate the data over a period other than daily, then the aggregated total could be recorded in a supplemental qualifier variable. | Role: Record Qualifier | Type: Num | Core: Perm | Class: Interventions",
  "SU.SUROUTE": "SUROUTE in SU domain | Label: Route of Administration | Description: Route of administration for SUTRT. Examples: \"ORAL\", \"INTRAVENOUS\". | Role: Variable Qualifier | Type: Char | Core: Perm | Class: Interventions",
  "SU.TAETORD": "TAETORD in SU domain | Label: Planned Order of Element within Arm | Description: Number that gives the planned order of the element within the arm for the element in which the substance use started. Null for substances that started before study participation. | Role: Timing | Type: Num | Core: Perm | Class: Interventions",
  "SU.EPOCH": "EPOCH in SU domain | Label: Epoch | Description: Epoch associated with the start date/time of the substance use. Null for substances that started before study participation. | Role: Timing | Type: Char | Core: Perm | Class: Interventions",
  "SU.SUSTDTC": "SUSTDTC in SU domain | Label: Start Date/Time of Substance Use | Description: Start date/time of the substance use represented in ISO 8601 character format. | Role: Timing | Type: Char | Core: Perm | Class: Interventions",
  "SU.SUENDTC": "SUENDTC in SU domain | Label: End Date/Time of Substance Use | Description: End date/time of the substance use represented in ISO 8601 character format. | Role: Timing | Type: Char | Core: Perm | Class: Interventions",
  "SU.SUSTDY": "SUSTDY in SU domain | Label: Study Day of Start of Substance Use | Description: Study day of start of substance use relative to the sponsor-defined RFSTDTC. | Role: Timing | Type: Num | Core: Perm | Class: Interventions",
  "SU.SUENDY": "SUENDY in SU domain | Label: Study Day of End of Substance Use | Description: Study day of end of substance use relative to the sponsor-defined RFSTDTC. | Role: Timing | Type: Num | Core: Perm | Class: Interventions",
  "SU.SUDUR": "SUDUR in SU domain | Label: Duration of Substance Use | Description: Collected duration of substance use in ISO 8601 format. Used only if collected on the CRF and not derived from start and end date/times. | Role: Timing | Type: Char | Core: Perm | Class: Interventions",
  "SU.SUSTRF": "SUSTRF in SU domain | Label: Start Relative to Reference Period | Description: Describes the start of the substance use relative to the sponsor-defined reference period. The sponsor-defined reference period is a continuous period of time defined by a discrete starting point and a discrete ending point (represented by RFSTDTC and RFENDTC in Demographics). If information such as \"PRIOR\" was collected, this information may be translated into SUSTRF. \\n Not all values of the codelist are allowable for this variable. See Section 4.4.7, Use of Relative Timing Variables. | Role: Timing | Type: Char | Core: Perm | Class: Interventions",
  "SU.SUENRF": "SUENRF in SU domain | Label: End Relative to Reference Period | Description: Describes the end of the substance use with relative to the sponsor-defined reference period. The sponsor-defined reference period is a continuous period of time defined by a discrete starting point and a discrete ending point (represented by RFSTDTC and RFENDTC in Demographics). If information such as \"PRIOR\", \"ONGOING\", or \"CONTINUING\" was collected, this information may be translated into SUENRF. \\n Not all values of the codelist are allowable for this variable. See Section 4.4.7, Use of Relative Timing Variables. | Role: Timing | Type: Char | Core: Perm | Class: Interventions",
  "SU.SUSTRTPT": "SUSTRTPT in SU domain | Label: Start Relative to Reference Time Point | Description: Identifies the start of the substance as being before or after the reference time point defined by variable SUSTTPT. \\n Not all values of the codelist are allowable for this variable. See Section 4.4.7 , Use of Relative Timing Variables. | Role: Timing | Type: Char | Core: Perm | Class: Interventions",
  "SU.SUSTTPT": "SUSTTPT in SU domain | Label: Start Reference Time Point | Description: Description or date/time in ISO 8601 character format of the reference point referred to by SUSTRTPT. Examples: \"2003-12-15\", \"VISIT 1\". | Role: Timing | Type: Char | Core: Perm | Class: Interventions",
  "SU.SUENRTPT": "SUENRTPT in SU domain | Label: End Relative to Reference Time Point | Description: Identifies the end of the substance as being before or after the reference time point defined by variable SUENTPT. \\n Not all values of the codelist are allowable for this variable. See Section 4.4.7 , Use of Relative Timing Variables. | Role: Timing | Type: Char | Core: Perm | Class: Interventions",
  "SU.SUENTPT": "SUENTPT in SU domain | Label: End Reference Time Point | Description: Description or date/time in ISO 8601 character format of the reference point referred to by SUENRTPT. Examples: \"2003-12-25\", \"VISIT 2\". | Role: Timing | Type: Char | Core: Perm | Class: Interventions",
  "AE.STUDYID": "STUDYID in AE domain | Label: Study Identifier | Description: Unique identifier for a study. | Role: Identifier | Type: Char | Core: Req | Class: Events",
  "AE.DOMAIN": "DOMAIN in AE domain | Label: Domain Abbreviation | Description: Two-character abbreviation for the domain. | Role: Identifier | Type: Char | Core: Req | Class: Events",
  "AE.USUBJID": "USUBJID in AE domain | Label: Unique Subject Identifier | Description: Identifier used to uniquely identify a subject across all studies for all applications or submissions involving the product. | Role: Identifier | Type: Char | Core: Req | Class: Events",
  "AE.SPDEVID": "SPDEVID in AE domain | Label: Sponsor Device Identifier | Description: A sequence of characters used by the sponsor to uniquely identify a specific device. Used to represent a device associated in some way with the adverse event. SPDEVID values are defined in the Device Identifiers (DI) domain. | Role: Identifier | Type: Char | Core: Perm | Class: Events",
  "AE.AESEQ": "AESEQ in AE domain | Label: Sequence Number | Description: Sequence number given to ensure uniqueness of subject records within a domain. May be any valid number. | Role: Identifier | Type: Num | Core: Req | Class: Events",
  "AE.AEGRPID": "AEGRPID in AE domain | Label: Group ID | Description: Used to tie together a block of related records in a single domain for a subject. | Role: Identifier | Type: Char | Core: Perm | Class: Events",
  "AE.AEREFID": "AEREFID in AE domain | Label: Reference ID | Description: Internal or external identifier such as a serial number on an SAE reporting form. | Role: Identifier | Type: Char | Core: Perm | Class: Events",
  "AE.AESPID": "AESPID in AE domain | Label: Sponsor-Defined Identifier | Description: Sponsor-defined identifier. It may be preprinted on the CRF as an explicit line identifier or defined in the sponsor's operational database. Example: Line number on an Adverse Events CRF page. | Role: Identifier | Type: Char | Core: Perm | Class: Events",
  "AE.AETERM": "AETERM in AE domain | Label: Reported Term for the Adverse Event | Description: Verbatim name of the event. | Role: Topic | Type: Char | Core: Req | Class: Events",
  "AE.AEMODIFY": "AEMODIFY in AE domain | Label: Modified Reported Term | Description: If AETERM is modified to facilitate coding, then AEMODIFY will contain the modified text. | Role: Synonym Qualifier | Type: Char | Core: Perm | Class: Events",
  "AE.AELLT": "AELLT in AE domain | Label: Lowest Level Term | Description: Dictionary-derived text description of the lowest level term. | Role: Variable Qualifier | Type: Char | Core: Exp | Class: Events",
  "AE.AELLTCD": "AELLTCD in AE domain | Label: Lowest Level Term Code | Description: Dictionary-derived code for the lowest level term. | Role: Variable Qualifier | Type: Num | Core: Exp | Class: Events",
  "AE.AEDECOD": "AEDECOD in AE domain | Label: Dictionary-Derived Term | Description: Dictionary-derived text description of AETERM or AEMODIFY. Equivalent to the Preferred Term (PT in MedDRA). The sponsor is expected to provide the dictionary name and version used to map the terms utilizing the external codelist element in the Define-XML document. | Role: Synonym Qualifier | Type: Char | Core: Req | Class: Events",
  "AE.AEPTCD": "AEPTCD in AE domain | Label: Preferred Term Code | Description: Dictionary-derived code for the preferred term. | Role: Variable Qualifier | Type: Num | Core: Exp | Class: Events",
  "AE.AEHLT": "AEHLT in AE domain | Label: High Level Term | Description: Dictionary-derived text description of the high level term for the primary system organ class (SOC). | Role: Variable Qualifier | Type: Char | Core: Exp | Class: Events",
  "AE.AEHLTCD": "AEHLTCD in AE domain | Label: High Level Term Code | Description: Dictionary-derived code for the high level term for the primary SOC. | Role: Variable Qualifier | Type: Num | Core: Exp | Class: Events",
  "AE.AEHLGT": "AEHLGT in AE domain | Label: High Level Group Term | Description: Dictionary-derived text description of the high level group term for the primary SOC. | Role: Variable Qualifier | Type: Char | Core: Exp | Class: Events",
  "AE.AEHLGTCD": "AEHLGTCD in AE domain | Label: High Level Group Term Code | Description: Dictionary-derived code for the high level group term for the primary SOC. | Role: Variable Qualifier | Type: Num | Core: Exp | Class: Events",
  "AE.AECAT": "AECAT in AE domain | Label: Category for Adverse Event | Description: Used to define a category of related records. Examples: \"BLEEDING\", \"NEUROPSYCHIATRIC\". | Role: Grouping Qualifier | Type: Char | Core: Perm | Class: Events",
  "AE.AESCAT": "AESCAT in AE domain | Label: Subcategory for Adverse Event | Description: A further categorization of adverse event. Example: \"NEUROLOGIC\". | Role: Grouping Qualifier | Type: Char | Core: Perm | Class: Events",
  "AE.AEPRESP": "AEPRESP in AE domain | Label: Pre-Specified Adverse Event | Description: A value of \"Y\" indicates that this adverse event was prespecified on the CRF. Values are null for spontaneously reported events (i.e., those collected as free-text verbatim terms). | Role: Variable Qualifier | Type: Char | Core: Perm | Class: Events",
  "AE.AEBODSYS": "AEBODSYS in AE domain | Label: Body System or Organ Class | Description: Dictionary derived. Body system or organ class used by the sponsor from the coding dictionary (e.g., MedDRA). When using a multi-axial dictionary such as MedDRA, this should contain the SOC used for the sponsor's analyses and summary tables, which may not necessarily be the primary SOC. | Role: Record Qualifier | Type: Char | Core: Exp | Class: Events",
  "AE.AEBDSYCD": "AEBDSYCD in AE domain | Label: Body System or Organ Class Code | Description: Dictionary derived. Code for the body system or organ class used by the sponsor. When using a multi-axial dictionary such as MedDRA, this should contain the SOC used for the sponsor's analyses and summary tables, which may not necessarily be the primary SOC. | Role: Variable Qualifier | Type: Num | Core: Exp | Class: Events",
  "AE.AESOC": "AESOC in AE domain | Label: Primary System Organ Class | Description: Dictionary-derived text description of the primary SOC. Will be the same as AEBODSYS if the primary SOC was used for analysis. | Role: Variable Qualifier | Type: Char | Core: Exp | Class: Events",
  "AE.AESOCCD": "AESOCCD in AE domain | Label: Primary System Organ Class Code | Description: Dictionary-derived code for the primary SOC. Will be the same as AEBDSYCD if the primary SOC was used for analysis. | Role: Variable Qualifier | Type: Num | Core: Exp | Class: Events",
  "AE.AELOC": "AELOC in AE domain | Label: Location of Event | Description: Describes anatomical location relevant for the event (e.g., \"ARM\" for skin rash). | Role: Record Qualifier | Type: Char | Core: Perm | Class: Events",
  "AE.AESEV": "AESEV in AE domain | Label: Severity/Intensity | Description: The severity or intensity of the event. Examples: \"MILD\", \"MODERATE\", \"SEVERE\". | Role: Record Qualifier | Type: Char | Core: Perm | Class: Events",
  "AE.AESER": "AESER in AE domain | Label: Serious Event | Description: Is this a serious event? Valid values are \"Y\" and \"N\". | Role: Record Qualifier | Type: Char | Core: Exp | Class: Events",
  "AE.AEACN": "AEACN in AE domain | Label: Action Taken with Study Treatment | Description: Describes changes to the study treatment as a result of the event. AEACN is specifically for the relationship to study treatment. AEACNOTH is for actions unrelated to dose adjustments of study treatment. Examples of AEACN values include ICH E2B values: \"DRUG WITHDRAWN\", \"DOSE REDUCED\", \"DOSE INCREASED\", \"DOSE NOT CHANGED\", \"UNKNOWN\" and \"NOT APPLICABLE\". | Role: Record Qualifier | Type: Char | Core: Exp | Class: Events",
  "AE.AEACNOTH": "AEACNOTH in AE domain | Label: Other Action Taken | Description: Describes other actions taken as a result of the event that are unrelated to dose adjustments of study treatment. Usually reported as free text. Example: \"TREATMENT UNBLINDED. PRIMARY CARE PHYSICIAN NOTIFIED\". | Role: Record Qualifier | Type: Char | Core: Perm | Class: Events",
  "AE.AEACNDEV": "AEACNDEV in AE domain | Label: Action Taken with Device | Description: An action taken with a device as the result of the event. The device may or may not be a device under study. | Role: Record Qualifier | Type: Char | Core: Perm | Class: Events",
  "AE.AEREL": "AEREL in AE domain | Label: Causality | Description: Records the investigator's opinion as to the causality of the event to the treatment. ICH does not establish any required or recommended terms for non-device relatedness. ICH E2A and E2B examples include (up-cased here for alignment to SDTM conventions) terms such as \"NOT RELATED\", \"UNLIKELY RELATED\", \"POSSIBLY RELATED\", \"RELATED\", but these example terms do not establish any conventions or expectations. Controlled terminology may be defined in the future. Check with regulatory authority for population of this variable. | Role: Record Qualifier | Type: Char | Core: Exp | Class: Events",
  "AE.AERLDEV": "AERLDEV in AE domain | Label: Relationship of Event to Device | Description: A judgment as to the likelihood that the device caused the adverse event. The relationship is to a device identified in the data (i.e., has an SPDEVID). The device may be ancillary or under study. \\n Terminology: \\n * In the EU, follow the European Commission Guidelines on Medical Devices, Clinical Investigations: SAE Reporting (MEDDEV 2.7/3) (e.g., Not Related, Unlikely, Possible, Probable, Causal Relationship), with device-specific definitions. \\n * No required Controlled Terminology in US. | Role: Record Qualifier | Type: Char | Core: Perm | Class: Events",
  "AE.AERELNST": "AERELNST in AE domain | Label: Relationship to Non-Study Treatment | Description: Records the investigator's opinion as to whether the event may have been due to a treatment other than study drug. May be reported as free text. Example: \"MORE LIKELY RELATED TO ASPIRIN USE\". | Role: Record Qualifier | Type: Char | Core: Perm | Class: Events",
  "AE.AEPATT": "AEPATT in AE domain | Label: Pattern of Adverse Event | Description: Used to indicate the pattern of the event over time. Examples: \"INTERMITTENT\", \"CONTINUOUS\", \"SINGLE EVENT\". | Role: Record Qualifier | Type: Char | Core: Perm | Class: Events",
  "AE.AEOUT": "AEOUT in AE domain | Label: Outcome of Adverse Event | Description: Description of the outcome of an event. | Role: Record Qualifier | Type: Char | Core: Perm | Class: Events",
  "AE.AESCAN": "AESCAN in AE domain | Label: Involves Cancer | Description: Was the serious event associated with the development of cancer? Valid values are \"Y\" and \"N\". This is a legacy seriousness criterion. It is not included in ICH E2A or E2B. | Role: Record Qualifier | Type: Char | Core: Perm | Class: Events",
  "AE.AESCONG": "AESCONG in AE domain | Label: Congenital Anomaly or Birth Defect | Description: Was the serious event associated with congenital anomaly or birth defect? Valid values are \"Y\" and \"N\". | Role: Record Qualifier | Type: Char | Core: Perm | Class: Events",
  "AE.AESDISAB": "AESDISAB in AE domain | Label: Persist or Signif Disability/Incapacity | Description: Did the serious event result in persistent or significant disability/incapacity? Valid values are \"Y\" and \"N\". | Role: Record Qualifier | Type: Char | Core: Perm | Class: Events",
  "AE.AESDTH": "AESDTH in AE domain | Label: Results in Death | Description: Did the serious event result in death? Valid values are \"Y\" and \"N\". | Role: Record Qualifier | Type: Char | Core: Perm | Class: Events",
  "AE.AESHOSP": "AESHOSP in AE domain | Label: Requires or Prolongs Hospitalization | Description: Did the serious event require or prolong hospitalization? Valid values are \"Y\" and \"N\". | Role: Record Qualifier | Type: Char | Core: Perm | Class: Events",
  "AE.AESLIFE": "AESLIFE in AE domain | Label: Is Life Threatening | Description: Was the serious event life-threatening? Valid values are \"Y\" and \"N\". | Role: Record Qualifier | Type: Char | Core: Perm | Class: Events",
  "AE.AESOD": "AESOD in AE domain | Label: Occurred with Overdose | Description: Did the serious event occur with an overdose? Valid values are \"Y\" and \"N\". This is a legacy seriousness criterion. It is not included in ICH E2A or E2B. | Role: Record Qualifier | Type: Char | Core: Perm | Class: Events",
  "AE.AESMIE": "AESMIE in AE domain | Label: Other Medically Important Serious Event | Description: Do additional categories for seriousness apply? Valid values are \"Y\" and \"N\". | Role: Record Qualifier | Type: Char | Core: Perm | Class: Events",
  "AE.AESINTV": "AESINTV in AE domain | Label: Needs Intervention to Prevent Impairment | Description: Records whether medical or surgical intervention was necessary to preclude permanent impairment of a body function, or to prevent permanent damage to a body structure, with either situation suspected to be due to the use of a medical product. This variable is used in conjunction with the other \"seriousness\" variables (e.g., fatal, life-threatening). It is part of the US federal government definition of a serious adverse event; see 21 CFR Part 803.3(w)(3). | Role: Record Qualifier | Type: Char | Core: Perm | Class: Events",
  "AE.AEUNANT": "AEUNANT in AE domain | Label: Unanticipated Adverse Device Effect | Description: Any serious adverse effect on health or safety or any life-threatening problem or death caused by or associated with a device, if that effect, problem, or death was not previously identified in nature, severity, or degree of incidence in the investigational plan or application (including a supplementary plan or application), \\n or \\n any other unanticipated serious problem associated with a device that relates to the rights, safety, or welfare of subjects. (21 CFR Part 812.3(s)). \\n This variable applies only to serious AEs and should hold collected data; if the value is derived, it should be held in ADaM. | Role: Record Qualifier | Type: Char | Core: Perm | Class: Events",
  "AE.AERLPRT": "AERLPRT in AE domain | Label: Rel of AE to Non-Dev-Rel Study Activity | Description: The investigator's opinion as to the causality of the event as related to other protocol-required activities, actions, or assessments (e.g., medication changes, tests/assessments, other procedures). The relationship is to a protocol-specified, non-device-related activity where the device is identified in the data (i.e., has an SPDEVID). The device may be ancillary or under study. \\n Terminology: \\n * In the EU, follow the European Commission Guidelines on Medical Devices, Clinical Investigations: SAE Reporting (MEDDEV 2.7/3) (e.g., Not Related, Unlikely, Possible, Probable, Causal Relationship), with device-specific definitions. \\n * No required Controlled Terminology in US. | Role: Record Qualifier | Type: Char | Core: Perm | Class: Events",
  "AE.AERLPRC": "AERLPRC in AE domain | Label: Rel of AE to Device-Related Procedure | Description: The investigator's opinion as to the likelihood that the device-related study procedure (e.g., implant/insertion, revision/adjustment, explant/removal) caused the AE. The relationship is to a device-related procedure where the device is identified in the data (i.e., has an SPDEVID). The device may be ancillary or under study. \\n Terminology: \\n * In the EU, follow the European Commission Guidelines on Medical Devices, Clinical Investigations: SAE Reporting (MEDDEV 2.7/3) (e.g., Not Related, Unlikely, Possible, Probable, Causal Relationship), with device-specific definitions. \\n * No required Controlled Terminology in US. | Role: Record Qualifier | Type: Char | Core: Perm | Class: Events",
  "AE.AECONTRT": "AECONTRT in AE domain | Label: Concomitant or Additional Trtmnt Given | Description: Was another treatment given because of the occurrence of the event? Valid values are \"Y\" and \"N\". | Role: Record Qualifier | Type: Char | Core: Perm | Class: Events",
  "AE.AETOXGR": "AETOXGR in AE domain | Label: Standard Toxicity Grade | Description: Toxicity grade according to a standard toxicity scale (e.g., Common Terminology Criteria for Adverse Events, CTCAE). Sponsors should specify the name of the scale and version used in the metadata (see assumption 7d). If value is from a numeric scale, represent only the number (e.g., \"2\", not \"Grade 2\"). | Role: Record Qualifier | Type: Char | Core: Perm | Class: Events",
  "AE.TAETORD": "TAETORD in AE domain | Label: Planned Order of Element within Arm | Description: Number that gives the planned order of the element within the arm. | Role: Timing | Type: Num | Core: Perm | Class: Events",
  "AE.EPOCH": "EPOCH in AE domain | Label: Epoch | Description: Epoch associated with the start date/time of the adverse event. Examples: \"SCREENING\", \"TREATMENT\", \"FOLLOW-UP\". | Role: Timing | Type: Char | Core: Perm | Class: Events",
  "AE.AESTDTC": "AESTDTC in AE domain | Label: Start Date/Time of Adverse Event | Description: Start date/time of the adverse event represented in ISO 8601 character format. | Role: Timing | Type: Char | Core: Exp | Class: Events",
  "AE.AEENDTC": "AEENDTC in AE domain | Label: End Date/Time of Adverse Event | Description: End date/time of the adverse event represented in ISO 8601 character format. | Role: Timing | Type: Char | Core: Exp | Class: Events",
  "AE.AESTDY": "AESTDY in AE domain | Label: Study Day of Start of Adverse Event | Description: Study day of start of adverse event relative to the sponsor-defined RFSTDTC. | Role: Timing | Type: Num | Core: Perm | Class: Events",
  "AE.AEENDY": "AEENDY in AE domain | Label: Study Day of End of Adverse Event | Description: Study day of end of event relative to the sponsor-defined RFSTDTC. | Role: Timing | Type: Num | Core: Perm | Class: Events",
  "AE.AEDUR": "AEDUR in AE domain | Label: Duration of Adverse Event | Description: Collected duration and unit of an adverse event. Used only if collected on the CRF and not derived from start and end date/times. Example: \"P1DT2H\" (for 1 day, 2 hours). | Role: Timing | Type: Char | Core: Perm | Class: Events",
  "AE.AEENRF": "AEENRF in AE domain | Label: End Relative to Reference Period | Description: Describes the end of the event relative to the sponsor-defined reference period. The sponsor-defined reference period is a continuous period of time defined by a discrete starting point (RFSTDTC) and a discrete ending point (RFENDTC) of the trial. \\n Not all values of the codelist are allowable for this variable. See Section 4.4.7, Use of Relative Timing Variables. | Role: Timing | Type: Char | Core: Perm | Class: Events",
  "AE.AEENRTPT": "AEENRTPT in AE domain | Label: End Relative to Reference Time Point | Description: Identifies the end of the event as being before or after the reference time point defined by variable AEENTPT. \\n Not all values of the codelist are allowable for this variable. See Section 4.4.7, Use of Relative Timing Variables. | Role: Timing | Type: Char | Core: Perm | Class: Events",
  "AE.AEENTPT": "AEENTPT in AE domain | Label: End Reference Time Point | Description: Description of date/time in ISO 8601 character format of the reference point referred to by AEENRTPT. Examples: \"2003-12-25\", \"VISIT 2\". | Role: Timing | Type: Char | Core: Perm | Class: Events",
  "BE.STUDYID": "STUDYID in BE domain | Label: Study Identifier | Description: Unique identifier for a study. | Role: Identifier | Type: Char | Core: Req | Class: Events",
  "BE.DOMAIN": "DOMAIN in BE domain | Label: Domain Abbreviation | Description: Two-character abbreviation for the domain. | Role: Identifier | Type: Char | Core: Req | Class: Events",
  "BE.USUBJID": "USUBJID in BE domain | Label: Unique Subject Identifier | Description: Identifier used to uniquely identify a subject across all studies for all applications or submissions involving the product. | Role: Identifier | Type: Char | Core: Req | Class: Events",
  "BE.SPDEVID": "SPDEVID in BE domain | Label: Sponsor Device Identifier | Description: Sponsor-defined identifier for a device. | Role: Identifier | Type: Char | Core: Perm | Class: Events",
  "BE.BESEQ": "BESEQ in BE domain | Label: Sequence Number | Description: Sequence number to ensure uniqueness of records within a dataset for a subject. May be any valid number (including decimals) and does not have to start at 1. | Role: Identifier | Type: Num | Core: Req | Class: Events",
  "BE.BEGRPID": "BEGRPID in BE domain | Label: Group ID | Description: Optional group identifier, used to link together a block of related records within a subject in a domain. | Role: Identifier | Type: Char | Core: Perm | Class: Events",
  "BE.BEREFID": "BEREFID in BE domain | Label: Reference ID | Description: Internal or external identifier for the specimen affected or created by the event. | Role: Identifier | Type: Char | Core: Exp | Class: Events",
  "BE.BESPID": "BESPID in BE domain | Label: Sponsor-Defined Identifier | Description: Optional sponsor-defined reference number. Example: Line number on a CRF page. | Role: Identifier | Type: Char | Core: Perm | Class: Events",
  "BE.BETERM": "BETERM in BE domain | Label: Reported Term for the Biospecimen Event | Description: Topic variable for an event observation, which is the verbatim or pre-specified name of the event. | Role: Topic | Type: Char | Core: Req | Class: Events",
  "BE.BEMODIFY": "BEMODIFY in BE domain | Label: Modified Reported Term | Description: If the value for BETERM is modified for coding purposes, then the modified text is placed here. | Role: Synonym Qualifier | Type: Char | Core: Perm | Class: Events",
  "BE.BEDECOD": "BEDECOD in BE domain | Label: Dictionary-Derived Term | Description: Dictionary-derived text description of BETERM or BEMODIFY, if applicable. | Role: Synonym Qualifier | Type: Char | Core: Perm | Class: Events",
  "BE.BECAT": "BECAT in BE domain | Label: Category for Biospecimen Event | Description: Used to define a category of topic-variable values. Example: COLLECTION, PREPARATION, TRANSPORT. | Role: Grouping Qualifier | Type: Char | Core: Perm | Class: Events",
  "BE.BESCAT": "BESCAT in BE domain | Label: Subcategory for Biospecimen Event | Description: A further categorization of BECAT values. | Role: Grouping Qualifier | Type: Char | Core: Perm | Class: Events",
  "BE.BELOC": "BELOC in BE domain | Label: Anatomical Location of Event | Description: Describes the anatomical location relevant for the event (e.g. BRAIN, LUNG). | Role: Record Qualifier | Type: Char | Core: Perm | Class: Events",
  "BE.BEPARTY": "BEPARTY in BE domain | Label: Accountable Party | Description: Party accountable for the transferable object (e.g. specimen) as a result of the activity performed in the associated BETERM variable. The party could be an individual (e.g., subject), an organization (e.g., sponsor), or a location that is a proxy for an individual or organization (e.g., site). It is usually a somewhat general term that is further identified in the BEPRTYID variable. | Role: Record Qualifier | Type: Char | Core: Perm | Class: Events",
  "BE.BEPRTYID": "BEPRTYID in BE domain | Label: Identification of Accountable Party | Description: Identification of the specific party accountable for the transferable object (e.g. Specimen) after the action in BETERM is taken. Used in conjunction with BEPARTY. | Role: Record Qualifier | Type: Char | Core: Perm | Class: Events",
  "BE.VISITNUM": "VISITNUM in BE domain | Label: Visit Number | Description: Clinical encounter number. Numeric version of VISIT, used for sorting. | Role: Timing | Type: Num | Core: Exp | Class: Events",
  "BE.VISIT": "VISIT in BE domain | Label: Visit Name | Description: Protocol-defined description of clinical encounter. | Role: Timing | Type: Char | Core: Perm | Class: Events",
  "BE.VISITDY": "VISITDY in BE domain | Label: Planned Study Day of Visit | Description: Planned study day of VISIT. Should be an integer. | Role: Timing | Type: Num | Core: Perm | Class: Events",
  "BE.BEDTC": "BEDTC in BE domain | Label: Date/Time of Specimen Collection | Description: Date and time of specimen collection. | Role: Timing | Type: Char | Core: Exp | Class: Events",
  "BE.BESTDTC": "BESTDTC in BE domain | Label: Start Date/Time of Biospecimen Event | Description: Start date/time of the event. | Role: Timing | Type: Char | Core: Exp | Class: Events",
  "BE.BEENDTC": "BEENDTC in BE domain | Label: End Date/Time of Biospecimen Event | Description: End date/time of the event. | Role: Timing | Type: Char | Core: Exp | Class: Events",
  "BE.BESTDY": "BESTDY in BE domain | Label: Study Day of Start of Biospecimen Event | Description: Actual study day of start of observation expressed in integer days relative to the sponsor-defined RFSTDTC in Demographics. | Role: Timing | Type: Num | Core: Perm | Class: Events",
  "BE.BEENDY": "BEENDY in BE domain | Label: Study Day of End of Biospecimen Event | Description: Actual study day of end of observation expressed in integer days relative to the sponsor-defined RFSTDTC in Demographics. | Role: Timing | Type: Num | Core: Perm | Class: Events",
  "BE.BEDUR": "BEDUR in BE domain | Label: Duration of Biospecimen Event | Description: Collected duration and unit of a biospecimen event. Used only if collected on the CRF and not derived from start and end date/times. Example: P1DT2H (for 1 day, 2 hours). | Role: Timing | Type: Char | Core: Perm | Class: Events",
  "CE.STUDYID": "STUDYID in CE domain | Label: Study Identifier | Description: Unique identifier for a study. | Role: Identifier | Type: Char | Core: Req | Class: Events",
  "CE.DOMAIN": "DOMAIN in CE domain | Label: Domain Abbreviation | Description: Two-character abbreviation for the domain. | Role: Identifier | Type: Char | Core: Req | Class: Events",
  "CE.USUBJID": "USUBJID in CE domain | Label: Unique Subject Identifier | Description: Identifier used to uniquely identify a subject across all studies for all applications or submissions involving the product. | Role: Identifier | Type: Char | Core: Req | Class: Events",
  "CE.CESEQ": "CESEQ in CE domain | Label: Sequence Number | Description: Sequence number given to ensure uniqueness of subject records within a domain. May be any valid number. | Role: Identifier | Type: Num | Core: Req | Class: Events",
  "CE.CEGRPID": "CEGRPID in CE domain | Label: Group ID | Description: Used to link together a block of related records for a subject within a domain. | Role: Identifier | Type: Char | Core: Perm | Class: Events",
  "CE.CEREFID": "CEREFID in CE domain | Label: Reference ID | Description: Internal or external identifier (e.g., lab specimen ID, UUID for an ECG waveform or medical image). | Role: Identifier | Type: Char | Core: Perm | Class: Events",
  "CE.CESPID": "CESPID in CE domain | Label: Sponsor-Defined Identifier | Description: Sponsor-defined identifier. | Role: Identifier | Type: Char | Core: Perm | Class: Events",
  "CE.CETERM": "CETERM in CE domain | Label: Reported Term for the Clinical Event | Description: Term for the medical condition or event. Most likely preprinted on CRF. | Role: Topic | Type: Char | Core: Req | Class: Events",
  "CE.CEDECOD": "CEDECOD in CE domain | Label: Dictionary-Derived Term | Description: Controlled terminology for the name of the clinical event. The sponsor is expected to provide the dictionary name and version used to map the terms utilizing the external codelist element in the Define-XML document. | Role: Synonym Qualifier | Type: Char | Core: Perm | Class: Events",
  "CE.CECAT": "CECAT in CE domain | Label: Category for the Clinical Event | Description: Used to define a category of related records. | Role: Grouping Qualifier | Type: Char | Core: Perm | Class: Events",
  "CE.CESCAT": "CESCAT in CE domain | Label: Subcategory for the Clinical Event | Description: A further categorization of the condition or event. | Role: Grouping Qualifier | Type: Char | Core: Perm | Class: Events",
  "CE.CEPRESP": "CEPRESP in CE domain | Label: Clinical Event Pre-specified | Description: Used to indicate whether the event in CETERM was prespecified. Value is \"Y\" for prespecified events and null for spontaneously reported events. | Role: Variable Qualifier | Type: Char | Core: Perm | Class: Events",
  "CE.CEOCCUR": "CEOCCUR in CE domain | Label: Clinical Event Occurrence | Description: Used when the occurrence of specific events is solicited, to indicate whether or not a clinical event occurred. Values are null for spontaneously reported events. | Role: Record Qualifier | Type: Char | Core: Perm | Class: Events",
  "CE.CESTAT": "CESTAT in CE domain | Label: Completion Status | Description: The status indicates that a question from a prespecified list was not answered. | Role: Record Qualifier | Type: Char | Core: Perm | Class: Events",
  "CE.CEREASND": "CEREASND in CE domain | Label: Reason Clinical Event Not Collected | Description: Describes the reason clinical event data was not collected. Used in conjunction with CESTAT when value is \"NOT DONE\". | Role: Record Qualifier | Type: Char | Core: Perm | Class: Events",
  "CE.CEBODSYS": "CEBODSYS in CE domain | Label: Body System or Organ Class | Description: Dictionary-derived. Body system or organ class that is involved in an event or measurement from a standard hierarchy (e.g., MedDRA). When using a multi-axial dictionary such as MedDRA, this should contain the SOC used for the sponsor's analyses and summary tables, which may not necessarily be the primary SOC. | Role: Record Qualifier | Type: Char | Core: Perm | Class: Events",
  "CE.CESEV": "CESEV in CE domain | Label: Severity/Intensity | Description: The severity or intensity of the event. Examples: \"MILD\", \"MODERATE\", \"SEVERE\". | Role: Record Qualifier | Type: Char | Core: Perm | Class: Events",
  "CE.CETOXGR": "CETOXGR in CE domain | Label: Standard Toxicity Grade | Description: Toxicity grade according to a standard toxicity scale (e.g., Common Terminology Criteria for Adverse Events (CTCAE) v3.0). Sponsor should specify name of the scale and version used in the metadata. If value is from a numeric scale, represent only the number (e.g., \"2\", not \"Grade 2\"). | Role: Record Qualifier | Type: Char | Core: Perm | Class: Events",
  "CE.TAETORD": "TAETORD in CE domain | Label: Planned Order of Element within Arm | Description: Number that gives the planned order of the element within the arm for the element in which the clinical event started. | Role: Timing | Type: Num | Core: Perm | Class: Events",
  "CE.EPOCH": "EPOCH in CE domain | Label: Epoch | Description: Epoch associated with the start date/time of the clinical event. | Role: Timing | Type: Char | Core: Perm | Class: Events",
  "CE.CEDTC": "CEDTC in CE domain | Label: Date/Time of Event Collection | Description: Collection date and time for the clinical event observation represented in ISO 8601 character format. | Role: Timing | Type: Char | Core: Perm | Class: Events",
  "CE.CESTDTC": "CESTDTC in CE domain | Label: Start Date/Time of Clinical Event | Description: Start date/time of the clinical event represented in ISO 8601 character format. | Role: Timing | Type: Char | Core: Perm | Class: Events",
  "CE.CEENDTC": "CEENDTC in CE domain | Label: End Date/Time of Clinical Event | Description: End date/time of the clinical event, represented in ISO 8601 character format. | Role: Timing | Type: Char | Core: Perm | Class: Events",
  "CE.CEDY": "CEDY in CE domain | Label: Study Day of Event Collection | Description: Study day of clinical event collection, measured as integer days. Algorithm for calculations must be relative to the sponsor-defined RFSTDTC variable in Demographics. This formula should be consistent across the submission. | Role: Timing | Type: Num | Core: Perm | Class: Events",
  "CE.CESTDY": "CESTDY in CE domain | Label: Study Day of Start of Event | Description: Actual study day of start of the clinical event expressed in integer days relative to the sponsor-defined RFSTDTC in Demographics. | Role: Timing | Type: Num | Core: Perm | Class: Events",
  "CE.CEENDY": "CEENDY in CE domain | Label: Study Day of End of Event | Description: Actual study day of end of the clinical event expressed in integer days relative to the sponsor-defined RFSTDTC in Demographics. | Role: Timing | Type: Num | Core: Perm | Class: Events",
  "CE.CESTRF": "CESTRF in CE domain | Label: Start Relative to Reference Period | Description: Describes the start of the clinical event relative to the sponsor-defined reference period. The sponsor-defined reference period is a continuous period of time defined by a discrete starting point and a discrete ending point (represented by RFSTDTC and RFENDTC in Demographics). \\n Not all values of the codelist are allowable for this variable. See Section 4.4.7, Use of Relative Timing Variables. | Role: Timing | Type: Char | Core: Perm | Class: Events",
  "CE.CEENRF": "CEENRF in CE domain | Label: End Relative to Reference Period | Description: Describes the end of the event relative to the sponsor-defined reference period. The sponsor-defined reference period is a continuous period of time defined by a discrete starting point and a discrete ending point (represented by RFSTDTC and RFENDTC in Demographics). \\n Not all values of the codelist are allowable for this variable. See Section 4.4.7, Use of Relative Timing Variables. | Role: Timing | Type: Char | Core: Perm | Class: Events",
  "CE.CESTRTPT": "CESTRTPT in CE domain | Label: Start Relative to Reference Time Point | Description: Identifies the start of the observation as being before or after the reference time point defined by variable CESTTPT. \\n Not all values of the codelist are allowable for this variable. See Section 4.4.7, Use of Relative Timing Variables. | Role: Timing | Type: Char | Core: Perm | Class: Events",
  "CE.CESTTPT": "CESTTPT in CE domain | Label: Start Reference Time Point | Description: Description or date/time in ISO 8601 character format of the sponsor-defined reference point referred to by --STRTPT. Examples: \"2003-12-15\", \"VISIT 1\". | Role: Timing | Type: Char | Core: Perm | Class: Events",
  "CE.CEENRTPT": "CEENRTPT in CE domain | Label: End Relative to Reference Time Point | Description: Identifies the end of the observation as being before or after the sponsor-defined reference time point defined by variable CEENTPT. \\n Not all values of the codelist are allowable for this variable. See Section 4.4.7, Use of Relative Timing Variables. | Role: Timing | Type: Char | Core: Perm | Class: Events",
  "CE.CEENTPT": "CEENTPT in CE domain | Label: End Reference Time Point | Description: Description or date/time in ISO 8601 character format of the reference point referred to by CEENRTPT. Examples: \"2003-12-25\", \"VISIT 2\". | Role: Timing | Type: Char | Core: Perm | Class: Events",
  "DS.STUDYID": "STUDYID in DS domain | Label: Study Identifier | Description: Unique identifier for a study. | Role: Identifier | Type: Char | Core: Req | Class: Events",
  "DS.DOMAIN": "DOMAIN in DS domain | Label: Domain Abbreviation | Description: Two-character abbreviation for the domain. | Role: Identifier | Type: Char | Core: Req | Class: Events",
  "DS.USUBJID": "USUBJID in DS domain | Label: Unique Subject Identifier | Description: Identifier used to uniquely identify a subject across all studies for all applications or submissions involving the product. | Role: Identifier | Type: Char | Core: Req | Class: Events",
  "DS.DSSEQ": "DSSEQ in DS domain | Label: Sequence Number | Description: Sequence number given to ensure uniqueness of subject records within a domain. May be any valid number. | Role: Identifier | Type: Num | Core: Req | Class: Events",
  "DS.DSGRPID": "DSGRPID in DS domain | Label: Group ID | Description: Used to tie together a block of related records in a single domain for a subject. | Role: Identifier | Type: Char | Core: Perm | Class: Events",
  "DS.DSREFID": "DSREFID in DS domain | Label: Reference ID | Description: Internal or external identifier. | Role: Identifier | Type: Char | Core: Perm | Class: Events",
  "DS.DSSPID": "DSSPID in DS domain | Label: Sponsor-Defined Identifier | Description: Sponsor-defined reference number. May be preprinted on the CRF as an explicit line identifier or defined in the sponsor's operational database. Example: Line number on a Disposition page. | Role: Identifier | Type: Char | Core: Perm | Class: Events",
  "DS.DSTERM": "DSTERM in DS domain | Label: Reported Term for the Disposition Event | Description: Verbatim name of the event or protocol milestone. Some terms in DSTERM will match DSDECOD, but others, such as \"Subject moved\", will map to controlled terminology in DSDECOD, such as \"LOST TO FOLLOW-UP\". | Role: Topic | Type: Char | Core: Req | Class: Events",
  "DS.DSDECOD": "DSDECOD in DS domain | Label: Standardized Disposition Term | Description: Controlled terminology for the name of disposition event or protocol milestone. Examples of protocol milestones: \"INFORMED CONSENT OBTAINED\", \"RANDOMIZED\". There are separate codelists used for DSDECOD where the choice depends on the value of DSCAT. Codelist \"NCOMPLT\" is used for disposition events, codelist \"PROTMLST\" is used for protocol milestones, and codelist \"OTHEVENT\" is used for other events. | Role: Synonym Qualifier | Type: Char | Core: Req | Class: Events",
  "DS.DSCAT": "DSCAT in DS domain | Label: Category for Disposition Event | Description: Used to define a category of related records. | Role: Grouping Qualifier | Type: Char | Core: Exp | Class: Events",
  "DS.DSSCAT": "DSSCAT in DS domain | Label: Subcategory for Disposition Event | Description: A further categorization of DSCAT (e.g., \"STUDY PARTICIPATION\", \"STUDY TREATMENT\" when DSCAT = \"DISPOSITION EVENT\"). The variable may be subject to controlled terminology for other categories of disposition event records. | Role: Grouping Qualifier | Type: Char | Core: Perm | Class: Events",
  "DS.EPOCH": "EPOCH in DS domain | Label: Epoch | Description: Epoch associated with the start date/time of the event. | Role: Timing | Type: Char | Core: Perm | Class: Events",
  "DS.DSDTC": "DSDTC in DS domain | Label: Date/Time of Collection | Description: Collection date and time of the disposition observation represented in ISO 8601 character format. | Role: Timing | Type: Char | Core: Perm | Class: Events",
  "DS.DSSTDTC": "DSSTDTC in DS domain | Label: Start Date/Time of Disposition Event | Description: Start date/time of the disposition event in ISO 8601 character format. | Role: Timing | Type: Char | Core: Exp | Class: Events",
  "DS.DSDY": "DSDY in DS domain | Label: Study Day of Collection | Description: Study day of collection of event relative to the sponsor-defined RFSTDTC. | Role: Timing | Type: Num | Core: Perm | Class: Events",
  "DS.DSSTDY": "DSSTDY in DS domain | Label: Study Day of Start of Disposition Event | Description: Study day of start of event relative to the sponsor-defined RFSTDTC. | Role: Timing | Type: Num | Core: Exp | Class: Events",
  "DV.STUDYID": "STUDYID in DV domain | Label: Study Identifier | Description: Unique identifier for a study. | Role: Identifier | Type: Char | Core: Req | Class: Events",
  "DV.DOMAIN": "DOMAIN in DV domain | Label: Domain Abbreviation | Description: Two-character abbreviation for the domain. | Role: Identifier | Type: Char | Core: Req | Class: Events",
  "DV.USUBJID": "USUBJID in DV domain | Label: Unique Subject Identifier | Description: Identifier used to uniquely identify a subject across all studies for all applications or submissions involving the product. | Role: Identifier | Type: Char | Core: Req | Class: Events",
  "DV.DVSEQ": "DVSEQ in DV domain | Label: Sequence Number | Description: Sequence number given to ensure uniqueness of subject records within a domain. May be any valid number. | Role: Identifier | Type: Num | Core: Req | Class: Events",
  "DV.DVREFID": "DVREFID in DV domain | Label: Reference ID | Description: Internal or external identifier. | Role: Identifier | Type: Char | Core: Perm | Class: Events",
  "DV.DVSPID": "DVSPID in DV domain | Label: Sponsor-Defined Identifier | Description: Sponsor-defined reference number. May be preprinted on the CRF as an explicit line identifier or defined in the sponsor's operational database. Example: Line number on a CRF page. | Role: Identifier | Type: Char | Core: Perm | Class: Events",
  "DV.DVTERM": "DVTERM in DV domain | Label: Protocol Deviation Term | Description: Verbatim name of the protocol deviation criterion. Example: \"IVRS PROCESS DEVIATION - NO DOSE CALL PERFORMED\". DVTERM values will map to the controlled terminology in DVDECOD (e.g., \"TREATMENT DEVIATION\"). | Role: Topic | Type: Char | Core: Req | Class: Events",
  "DV.DVDECOD": "DVDECOD in DV domain | Label: Protocol Deviation Coded Term | Description: Controlled terminology for the name of the protocol deviation. Examples: \"SUBJECT NOT WITHDRAWN AS PER PROTOCOL\", \"SELECTION CRITERIA NOT MET\", \"EXCLUDED CONCOMITANT MEDICATION\", \"TREATMENT DEVIATION\". | Role: Synonym Qualifier | Type: Char | Core: Perm | Class: Events",
  "DV.DVCAT": "DVCAT in DV domain | Label: Category for Protocol Deviation | Description: Category of the protocol deviation criterion. | Role: Grouping Qualifier | Type: Char | Core: Perm | Class: Events",
  "DV.DVSCAT": "DVSCAT in DV domain | Label: Subcategory for Protocol Deviation | Description: A further categorization of the protocol deviation. | Role: Grouping Qualifier | Type: Char | Core: Perm | Class: Events",
  "DV.TAETORD": "TAETORD in DV domain | Label: Planned Order of Element within Arm | Description: Number that gives the planned order of the element within the arm. | Role: Timing | Type: Num | Core: Perm | Class: Events",
  "DV.EPOCH": "EPOCH in DV domain | Label: Epoch | Description: Epoch associated with the start date/time of the deviation. Examples: \"TREATMENT\", \"SCREENING\", \"FOLLOW-UP\". | Role: Timing | Type: Char | Core: Perm | Class: Events",
  "DV.DVSTDTC": "DVSTDTC in DV domain | Label: Start Date/Time of Deviation | Description: Start date/time of deviation represented in ISO 8601 character format. | Role: Timing | Type: Char | Core: Perm | Class: Events",
  "DV.DVENDTC": "DVENDTC in DV domain | Label: End Date/Time of Deviation | Description: End date/time of deviation represented in ISO 8601 character format. | Role: Timing | Type: Char | Core: Perm | Class: Events",
  "DV.DVSTDY": "DVSTDY in DV domain | Label: Study Day of Start of Deviation Event | Description: Study day of start of event relative to the sponsor-defined RFSTDTC. | Role: Timing | Type: Num | Core: Perm | Class: Events",
  "DV.DVENDY": "DVENDY in DV domain | Label: Study Day of End of Deviation Event | Description: Study day of end of event relative to the sponsor-defined RFSTDTC. | Role: Timing | Type: Num | Core: Perm | Class: Events",
  "HO.STUDYID": "STUDYID in HO domain | Label: Study Identifier | Description: Unique identifier for a study. | Role: Identifier | Type: Char | Core: Req | Class: Events",
  "HO.DOMAIN": "DOMAIN in HO domain | Label: Domain Abbreviation | Description: Two-character abbreviation for the domain. | Role: Identifier | Type: Char | Core: Req | Class: Events",
  "HO.USUBJID": "USUBJID in HO domain | Label: Unique Subject Identifier | Description: Identifier used to uniquely identify a subject across all studies for all applications or submissions involving the product. | Role: Identifier | Type: Char | Core: Req | Class: Events",
  "HO.HOSEQ": "HOSEQ in HO domain | Label: Sequence Number | Description: Sequence number given to ensure uniqueness of subject records within a domain. May be any valid number. | Role: Identifier | Type: Num | Core: Req | Class: Events",
  "HO.HOGRPID": "HOGRPID in HO domain | Label: Group ID | Description: Used to tie together a block of related records in a single domain for a subject. | Role: Identifier | Type: Char | Core: Perm | Class: Events",
  "HO.HOREFID": "HOREFID in HO domain | Label: Reference ID | Description: Internal or external healthcare encounter identifier. | Role: Identifier | Type: Char | Core: Perm | Class: Events",
  "HO.HOSPID": "HOSPID in HO domain | Label: Sponsor-Defined Identifier | Description: Sponsor-defined identifier. May be preprinted on the CRF as an explicit line identifier or defined in the sponsor's operational database. Example: Line number on a Healthcare Encounters CRF page. | Role: Identifier | Type: Char | Core: Perm | Class: Events",
  "HO.HOTERM": "HOTERM in HO domain | Label: Healthcare Encounter Term | Description: Verbatim or preprinted CRF term for the healthcare encounter. | Role: Topic | Type: Char | Core: Req | Class: Events",
  "HO.HODECOD": "HODECOD in HO domain | Label: Dictionary-Derived Term | Description: Dictionary or sponsor-defined derived text description of HOTERM or the modified topic variable (HOMODIFY). | Role: Synonym Qualifier | Type: Char | Core: Perm | Class: Events",
  "HO.HOCAT": "HOCAT in HO domain | Label: Category for Healthcare Encounter | Description: Used to define a category of topic-related values. | Role: Grouping Qualifier | Type: Char | Core: Perm | Class: Events",
  "HO.HOSCAT": "HOSCAT in HO domain | Label: Subcategory for Healthcare Encounter | Description: A further categorization of HOCAT values. | Role: Grouping Qualifier | Type: Char | Core: Perm | Class: Events",
  "HO.HOPRESP": "HOPRESP in HO domain | Label: Pre-Specified Healthcare Encounter | Description: A value of \"Y\" indicates that this healthcare encounter event was prespecified on the CRF. Values are null for spontaneously reported events (i.e., those collected as free-text verbatim terms). | Role: Variable Qualifier | Type: Char | Core: Perm | Class: Events",
  "HO.HOOCCUR": "HOOCCUR in HO domain | Label: Healthcare Encounter Occurrence | Description: Used when the occurrence of specific healthcare encounters is solicited, to indicate whether an encounter occurred. Values are null for spontaneously reported events. | Role: Record Qualifier | Type: Char | Core: Perm | Class: Events",
  "HO.HOSTAT": "HOSTAT in HO domain | Label: Completion Status | Description: The status indicates that the prespecified question was not answered. | Role: Record Qualifier | Type: Char | Core: Perm | Class: Events",
  "HO.HOREASND": "HOREASND in HO domain | Label: Reason Healthcare Encounter Not Done | Description: Describes the reason data for a prespecified event were not collected. Used in conjunction with HOSTAT when value is \"NOT DONE\". | Role: Record Qualifier | Type: Char | Core: Perm | Class: Events",
  "HO.TAETORD": "TAETORD in HO domain | Label: Planned Order of Element within Arm | Description: Number that gives the planned order of the element within the arm. | Role: Timing | Type: Num | Core: Perm | Class: Events",
  "HO.EPOCH": "EPOCH in HO domain | Label: Epoch | Description: Epoch associated with the start date/time of the healthcare encounter. Examples: \"SCREENING\", \"TREATMENT\", \"FOLLOW-UP\". | Role: Timing | Type: Char | Core: Perm | Class: Events",
  "HO.HODTC": "HODTC in HO domain | Label: Date/Time of Event Collection | Description: Collection date and time of the healthcare encounter. | Role: Timing | Type: Char | Core: Perm | Class: Events",
  "HO.HOSTDTC": "HOSTDTC in HO domain | Label: Start Date/Time of Healthcare Encounter | Description: Start date/time of the healthcare encounter (e.g., date of admission). | Role: Timing | Type: Char | Core: Exp | Class: Events",
  "HO.HOENDTC": "HOENDTC in HO domain | Label: End Date/Time of Healthcare Encounter | Description: End date/time of the healthcare encounter (e.g., date of discharge). | Role: Timing | Type: Char | Core: Perm | Class: Events",
  "HO.HODY": "HODY in HO domain | Label: Study Day of Event Collection | Description: Study day of event collection relative to the sponsor-defined RFSTDTC. | Role: Timing | Type: Num | Core: Perm | Class: Events",
  "HO.HOSTDY": "HOSTDY in HO domain | Label: Study Day of Start of Encounter | Description: Study day of the start of the healthcare encounter relative to the sponsor-defined RFSTDTC. | Role: Timing | Type: Num | Core: Perm | Class: Events",
  "HO.HOENDY": "HOENDY in HO domain | Label: Study Day of End of Healthcare Encounter | Description: Study day of the end of the healthcare encounter relative to the sponsor-defined RFSTDTC. | Role: Timing | Type: Num | Core: Perm | Class: Events",
  "HO.HODUR": "HODUR in HO domain | Label: Duration of Healthcare Encounter | Description: Collected duration of the healthcare encounter. Used only if collected on the CRF and not derived from the start and end date/times. Example: \"P1DT2H\" (for 1 day, 2 hours). | Role: Timing | Type: Char | Core: Perm | Class: Events",
  "HO.HOSTRTPT": "HOSTRTPT in HO domain | Label: Start Relative to Reference Time Point | Description: Identifies the start of the observation as being before or after the sponsor-defined reference time point defined by variable --STTPT. \\n Not all values of the codelist are allowable for this variable. See Section 4.4.7, Use of Relative Timing Variables. | Role: Timing | Type: Char | Core: Perm | Class: Events",
  "HO.HOSTTPT": "HOSTTPT in HO domain | Label: Start Reference Time Point | Description: Description or date/time in ISO 8601 character format of the sponsor-defined reference point referred to by STRTPT. Examples: \"2003-12-15\", \"VISIT 1\". | Role: Timing | Type: Char | Core: Perm | Class: Events",
  "HO.HOENRTPT": "HOENRTPT in HO domain | Label: End Relative to Reference Time Point | Description: Identifies the end of the event as being before or after the reference time point defined by variable HOENTPT. \\n Not all values of the codelist are allowable for this variable. See Section 4.4.7, Use of Relative Timing Variables. | Role: Timing | Type: Char | Core: Perm | Class: Events",
  "HO.HOENTPT": "HOENTPT in HO domain | Label: End Reference Time Point | Description: Description or date/time in ISO 8601 character format of the reference point referred to by HOENRTPT. Examples: \"2003-12-25\", \"VISIT 2\". | Role: Timing | Type: Char | Core: Perm | Class: Events",
  "MH.STUDYID": "STUDYID in MH domain | Label: Study Identifier | Description: Unique identifier for a study. | Role: Identifier | Type: Char | Core: Req | Class: Events",
  "MH.DOMAIN": "DOMAIN in MH domain | Label: Domain Abbreviation | Description: Two-character abbreviation for the domain. | Role: Identifier | Type: Char | Core: Req | Class: Events",
  "MH.USUBJID": "USUBJID in MH domain | Label: Unique Subject Identifier | Description: Identifier used to uniquely identify a subject across all studies for all applications or submissions involving the product. | Role: Identifier | Type: Char | Core: Req | Class: Events",
  "MH.MHSEQ": "MHSEQ in MH domain | Label: Sequence Number | Description: Sequence number given to ensure uniqueness of subject records within a domain. May be any valid number. | Role: Identifier | Type: Num | Core: Req | Class: Events",
  "MH.MHGRPID": "MHGRPID in MH domain | Label: Group ID | Description: Used to tie together a block of related records in a single domain for a subject. | Role: Identifier | Type: Char | Core: Perm | Class: Events",
  "MH.MHREFID": "MHREFID in MH domain | Label: Reference ID | Description: Internal or external medical history identifier. | Role: Identifier | Type: Char | Core: Perm | Class: Events",
  "MH.MHSPID": "MHSPID in MH domain | Label: Sponsor-Defined Identifier | Description: Sponsor-defined reference number. May be preprinted on the CRF as an explicit line identifier or defined in the sponsor's operational database. Example: Line number on a Medical History CRF page. | Role: Identifier | Type: Char | Core: Perm | Class: Events",
  "MH.MHTERM": "MHTERM in MH domain | Label: Reported Term for the Medical History | Description: Verbatim or preprinted CRF term for the medical condition or event. | Role: Topic | Type: Char | Core: Req | Class: Events",
  "MH.MHMODIFY": "MHMODIFY in MH domain | Label: Modified Reported Term | Description: If MHTERM is modified to facilitate coding, then MHMODIFY will contain the modified text. | Role: Synonym Qualifier | Type: Char | Core: Perm | Class: Events",
  "MH.MHDECOD": "MHDECOD in MH domain | Label: Dictionary-Derived Term | Description: Dictionary-derived text description of MHTERM or MHMODIFY. Equivalent to the Preferred Term (PT in MedDRA). The sponsor is expected to provide the dictionary name and version used to map the terms utilizing the external codelist element in the Define-XML document. | Role: Synonym Qualifier | Type: Char | Core: Perm | Class: Events",
  "MH.MHEVDTYP": "MHEVDTYP in MH domain | Label: Medical History Event Date Type | Description: Specifies the aspect of the medical condition or event by which MHSTDTC and/or the MHENDTC is defined. Examples: \"DIAGNOSIS\", \"SYMPTOMS\", \"RELAPSE\", \"INFECTION\". | Role: Variable Qualifier | Type: Char | Core: Perm | Class: Events",
  "MH.MHCAT": "MHCAT in MH domain | Label: Category for Medical History | Description: Used to define a category of related records. Examples: \"CARDIAC\", \"GENERAL\". | Role: Grouping Qualifier | Type: Char | Core: Perm | Class: Events",
  "MH.MHSCAT": "MHSCAT in MH domain | Label: Subcategory for Medical History | Description: A further categorization of the condition or event. | Role: Grouping Qualifier | Type: Char | Core: Perm | Class: Events",
  "MH.MHPRESP": "MHPRESP in MH domain | Label: Medical History Event Pre-Specified | Description: A value of \"Y\" indicates that this medical history event was prespecified on the CRF. Values are null for spontaneously reported events (i.e., those collected as free-text verbatim terms). | Role: Variable Qualifier | Type: Char | Core: Perm | Class: Events",
  "MH.MHOCCUR": "MHOCCUR in MH domain | Label: Medical History Occurrence | Description: Used when the occurrence of specific medical history conditions is solicited, to indicate whether (\"Y\"/\"N\") a medical condition (MHTERM) had ever occurred. Values are null for spontaneously reported events. | Role: Record Qualifier | Type: Char | Core: Perm | Class: Events",
  "MH.MHSTAT": "MHSTAT in MH domain | Label: Completion Status | Description: The status indicates that the prespecified question was not asked/answered. | Role: Record Qualifier | Type: Char | Core: Perm | Class: Events",
  "MH.MHREASND": "MHREASND in MH domain | Label: Reason Medical History Not Collected | Description: Describes the reason why data for a prespecified condition was not collected. Used in conjunction with MHSTAT when value is \"NOT DONE\". | Role: Record Qualifier | Type: Char | Core: Perm | Class: Events",
  "MH.MHBODSYS": "MHBODSYS in MH domain | Label: Body System or Organ Class | Description: Dictionary-derived. Body system or organ class that is involved in an event or measurement from a standard hierarchy (e.g., MedDRA). When using a multi-axial dictionary such as MedDRA, this should contain the SOC used for the sponsor's analyses and summary tables which may not necessarily be the primary SOC. | Role: Record Qualifier | Type: Char | Core: Perm | Class: Events",
  "MH.TAETORD": "TAETORD in MH domain | Label: Planned Order of Element within Arm | Description: Number that gives the planned order of the element within the arm for the element in which the assessment was made. | Role: Timing | Type: Num | Core: Perm | Class: Events",
  "MH.EPOCH": "EPOCH in MH domain | Label: Epoch | Description: Epoch associated with the start date/time of the medical history event. | Role: Timing | Type: Char | Core: Perm | Class: Events",
  "MH.MHDTC": "MHDTC in MH domain | Label: Date/Time of History Collection | Description: Collection date and time of the medical history observation represented in ISO 8601 character format. | Role: Timing | Type: Char | Core: Perm | Class: Events",
  "MH.MHSTDTC": "MHSTDTC in MH domain | Label: Start Date/Time of Medical History Event | Description: Start date/time of the medical history event represented in ISO 8601 character format. | Role: Timing | Type: Char | Core: Perm | Class: Events",
  "MH.MHENDTC": "MHENDTC in MH domain | Label: End Date/Time of Medical History Event | Description: End date/time of the medical history event. | Role: Timing | Type: Char | Core: Perm | Class: Events",
  "MH.MHDY": "MHDY in MH domain | Label: Study Day of History Collection | Description: Study day of medical history collection, measured as integer day. Algorithm for calculations must be relative to the sponsor-defined RFSTDTC variable in Demographics. This formula should be consistent across the submission. | Role: Timing | Type: Num | Core: Perm | Class: Events",
  "MH.MHENRF": "MHENRF in MH domain | Label: End Relative to Reference Period | Description: Describes the end of the event relative to the sponsor-defined reference period. The sponsor-defined reference period is a continuous period of time defined by a discrete starting point and a discrete ending point (represented by RFSTDTC and RFENDTC in Demographics). \\n Not all values of the codelist are allowable for this variable. See Section 4.4.7, Use of Relative Timing Variables. | Role: Timing | Type: Char | Core: Perm | Class: Events",
  "MH.MHENRTPT": "MHENRTPT in MH domain | Label: End Relative to Reference Time Point | Description: Identifies the end of the event as being before or after the reference time point defined by variable MHENTPT. \\n Not all values of the codelist are allowable for this variable. See Section 4.4.7, Use of Relative Timing Variables. | Role: Timing | Type: Char | Core: Perm | Class: Events",
  "MH.MHENTPT": "MHENTPT in MH domain | Label: End Reference Time Point | Description: Description or date/time in ISO 8601 character format of the reference point referred to by MHENRTPT. Examples: \"2003-12-25\", \"VISIT 2\". | Role: Timing | Type: Char | Core: Perm | Class: Events",
  "BS.STUDYID": "STUDYID in BS domain | Label: Study Identifier | Description: Unique identifier for a study. | Role: Identifier | Type: Char | Core: Req | Class: Findings",
  "BS.DOMAIN": "DOMAIN in BS domain | Label: Domain Abbreviation | Description: Two-character abbreviation for the domain. | Role: Identifier | Type: Char | Core: Req | Class: Findings",
  "BS.USUBJID": "USUBJID in BS domain | Label: Unique Subject Identifier | Description: Identifier used to uniquely identify a subject across all studies for all applications or submissions involving the product. | Role: Identifier | Type: Char | Core: Req | Class: Findings",
  "BS.SPDEVID": "SPDEVID in BS domain | Label: Sponsor Device Identifier | Description: Sponsor-defined identifier for a device. | Role: Identifier | Type: Char | Core: Perm | Class: Findings",
  "BS.BSSEQ": "BSSEQ in BS domain | Label: Sequence Number | Description: Sequence number given to ensure uniqueness within a dataset for a subject. May be any valid number (including decimals) and does not have to start at 1. | Role: Identifier | Type: Num | Core: Req | Class: Findings",
  "BS.BSGRPID": "BSGRPID in BS domain | Label: Group ID | Description: Optional group identifier, used to link together a block of related records within a subject in a domain. | Role: Identifier | Type: Char | Core: Perm | Class: Findings",
  "BS.BSREFID": "BSREFID in BS domain | Label: Reference ID | Description: Internal or external identifier such as lab specimen ID. | Role: Identifier | Type: Char | Core: Exp | Class: Findings",
  "BS.BSSPID": "BSSPID in BS domain | Label: Sponsor-Defined Identifier | Description: Sponsor-defined identifier. | Role: Identifier | Type: Char | Core: Perm | Class: Findings",
  "BS.BSTESTCD": "BSTESTCD in BS domain | Label: Biospecimen Test Short Name | Description: Short character value for BSTEST used as a column name when converting a dataset from a vertical format to a horizontal format. The short value can be up to 8 characters. Examples: VOLUME, RIN. | Role: Topic | Type: Char | Core: Req | Class: Findings",
  "BS.BSTEST": "BSTEST in BS domain | Label: Biospecimen Test Name | Description: Long name for BSTESTCD. Examples: Volume, RNA Integrity Number. | Role: Synonym Qualifier | Type: Char | Core: Req | Class: Findings",
  "BS.BSCAT": "BSCAT in BS domain | Label: Category for Biospecimen Test | Description: Used to define a category of topic-variable values. Example: MEASUREMENT, QUALITY. | Role: Grouping Qualifier | Type: Char | Core: Exp | Class: Findings",
  "BS.BSSCAT": "BSSCAT in BS domain | Label: Subcategory for Biospecimen Test | Description: Used to define a further categorization of BSCAT values. | Role: Grouping Qualifier | Type: Char | Core: Perm | Class: Findings",
  "BS.BSORRES": "BSORRES in BS domain | Label: Result or Finding in Original Units | Description: Result of the measurement or finding as originally received or collected. | Role: Result Qualifier | Type: Char | Core: Exp | Class: Findings",
  "BS.BSORRESU": "BSORRESU in BS domain | Label: Original Units | Description: Unit for BSORRES. Examples: mg, mL. | Role: Variable Qualifier | Type: Char | Core: Exp | Class: Findings",
  "BS.BSSTRESC": "BSSTRESC in BS domain | Label: Character Result/Finding in Std Format | Description: Contains the result value for all findings, copied or derived from BSORRES in a standard format or standard units. BSSTRESC should store all results or findings in character format; if results are numeric, they should also be stored in numeric format in BSSTRESN. | Role: Result Qualifier | Type: Char | Core: Exp | Class: Findings",
  "BS.BSSTRESN": "BSSTRESN in BS domain | Label: Numeric Result/Finding in Standard Units | Description: Used for continuous or numeric results or findings in standard format; copied in numeric format from BSSTRESC. BSSTRESN should store all numeric test results or findings. | Role: Result Qualifier | Type: Num | Core: Exp | Class: Findings",
  "BS.BSSTRESU": "BSSTRESU in BS domain | Label: Standard Units | Description: Standardized unit used for BSSTRESC and BSSTRESN. | Role: Variable Qualifier | Type: Char | Core: Exp | Class: Findings",
  "BS.BSSTAT": "BSSTAT in BS domain | Label: Completion Status | Description: Used to indicate that a test was not done, or was attempted but did not generate a result. Should be null or have a value of NOT DONE. | Role: Record Qualifier | Type: Char | Core: Perm | Class: Findings",
  "BS.BSREASND": "BSREASND in BS domain | Label: Reason Test Not Done | Description: Reason not done. Used in conjunction with BSSTAT when value is NOT DONE. | Role: Record Qualifier | Type: Char | Core: Perm | Class: Findings",
  "BS.BSNAM": "BSNAM in BS domain | Label: Vendor Name | Description: Name or identifier of the vendor (e.g., laboratory) that provided the test results. | Role: Record Qualifier | Type: Char | Core: Perm | Class: Findings",
  "BS.BSSPEC": "BSSPEC in BS domain | Label: Specimen Type | Description: Defines the type of specimen used for a measurement. Examples: SERUM, PLASMA, URINE, SOFT TISSUE. | Role: Record Qualifier | Type: Char | Core: Perm | Class: Findings",
  "BS.BSANTREG": "BSANTREG in BS domain | Label: Anatomical Region of Specimen | Description: Defines the specific anatomical or biological region of a tissue, organ specimen or the region from which the specimen is obtained, as defined in the protocol, such as a section or part of what is described in the BSSPEC variable. Examples: CORTEX, MEDULLA, MUCOSA. | Role: Variable Qualifier | Type: Char | Core: Perm | Class: Findings",
  "BS.BSSPCCND": "BSSPCCND in BS domain | Label: Specimen Condition | Description: Defines the condition of the specimen. Examples: HEMOLYZED, ICTERIC, LIPEMIC. | Role: Record Qualifier | Type: Char | Core: Perm | Class: Findings",
  "BS.BSMETHOD": "BSMETHOD in BS domain | Label: Method of Test or Examination | Description: Method of the test or examination. Examples: SPECTROPHOTOMETRY, ELECTROPHORESIS. | Role: Record Qualifier | Type: Char | Core: Perm | Class: Findings",
  "BS.BSBLFL": "BSBLFL in BS domain | Label: Baseline Flag | Description: Indicator used to identify a baseline value. | Role: Record Qualifier | Type: Char | Core: Perm | Class: Findings",
  "BS.VISITNUM": "VISITNUM in BS domain | Label: Visit Number | Description: Clinical encounter number. Numeric version of VISIT, used for sorting. | Role: Timing | Type: Num | Core: Exp | Class: Findings",
  "BS.VISIT": "VISIT in BS domain | Label: Visit Name | Description: Protocol-defined description of clinical encounter. | Role: Timing | Type: Char | Core: Perm | Class: Findings",
  "BS.VISITDY": "VISITDY in BS domain | Label: Planned Study Day of Visit | Description: Planned study day of VISIT. Should be an integer. | Role: Timing | Type: Num | Core: Perm | Class: Findings",
  "BS.BSDTC": "BSDTC in BS domain | Label: Date/Time of Specimen Collection | Description: Date and time of specimen collection. | Role: Timing | Type: Char | Core: Exp | Class: Findings",
  "BS.BSDY": "BSDY in BS domain | Label: Study Day of Specimen Collection | Description: Study day of specimen collection relative to the sponsor-defined RFSTDTC. | Role: Timing | Type: Num | Core: Perm | Class: Findings",
  "BS.BSTPT": "BSTPT in BS domain | Label: Planned Time Point Name | Description: Text description of time when a measurement or observation should be taken as defined in the protocol. This may be represented as an elapsed time relative to a fixed reference point, such as time of last dose. See BSTPTNUM and BSTPTREF. | Role: Timing | Type: Char | Core: Perm | Class: Findings",
  "BS.BSTPTNUM": "BSTPTNUM in BS domain | Label: Planned Time Point Number | Description: Numerical version of BSTPT used in sorting. | Role: Timing | Type: Num | Core: Perm | Class: Findings",
  "BS.BSELTM": "BSELTM in BS domain | Label: Planned Elapsed Time from Time Point Ref | Description: Elapsed time relative to a planned fixed reference (BSTPTREF). This variable is useful where there are repetitive measures. Not a clock time or a date time variable, but an interval, represented as ISO duration. | Role: Timing | Type: Char | Core: Perm | Class: Findings",
  "BS.BSTPTREF": "BSTPTREF in BS domain | Label: Time Point Reference | Description: Name of the fixed reference point referred to by BSELTM, BSTPTNUM, and BSTPT. Examples: PREVIOUS DOSE, PREVIOUS MEAL. | Role: Timing | Type: Char | Core: Perm | Class: Findings",
  "BS.BSRFTDTC": "BSRFTDTC in BS domain | Label: Date/Time of Reference Time Point | Description: Date/time for a fixed reference time point defined by BSTPTREF. | Role: Timing | Type: Char | Core: Perm | Class: Findings",
  "CP.STUDYID": "STUDYID in CP domain | Label: Study Identifier | Description: Unique identifier for a study. | Role: Identifier | Type: Char | Core: Req | Class: Findings",
  "CP.DOMAIN": "DOMAIN in CP domain | Label: Domain Abbreviation | Description: Two-character abbreviation for the domain. | Role: Identifier | Type: Char | Core: Req | Class: Findings",
  "CP.USUBJID": "USUBJID in CP domain | Label: Unique Subject Identifier | Description: Identifier used to uniquely identify a subject across all studies for all applications or submissions involving the product. | Role: Identifier | Type: Char | Core: Req | Class: Findings",
  "CP.CPSEQ": "CPSEQ in CP domain | Label: Sequence Number | Description: Sequence number to ensure uniqueness of subject records within a domain. May be any valid number. | Role: Identifier | Type: Num | Core: Req | Class: Findings",
  "CP.CPGRPID": "CPGRPID in CP domain | Label: Group ID | Description: Used to tie together a block of related records in a single domain for a subject. | Role: Identifier | Type: Char | Core: Perm | Class: Findings",
  "CP.CPREFID": "CPREFID in CP domain | Label: Reference ID | Description: Internal or external specimen identifier. | Role: Identifier | Type: Char | Core: Perm | Class: Findings",
  "CP.CPSPID": "CPSPID in CP domain | Label: Sponsor-Defined Identifier | Description: Sponsor-defined reference number. May be preprinted on the CRF as an explicit line identifier or defined in the sponsor's operational database. Example: Line number on the lab page. | Role: Identifier | Type: Char | Core: Perm | Class: Findings",
  "CP.CPLNKID": "CPLNKID in CP domain | Label: Link ID | Description: Identifier used to link related records across domains. This may be a one-to-one or a one-to-many relationship. | Role: Identifier | Type: Char | Core: Perm | Class: Findings",
  "CP.CPLNKGRP": "CPLNKGRP in CP domain | Label: Link Group ID | Description: Identifier used to link related records across domains. This will usually be a many-to-one relationship. | Role: Identifier | Type: Char | Core: Perm | Class: Findings",
  "CP.CPTESTCD": "CPTESTCD in CP domain | Label: Test or Examination Short Name | Description: Short name of the measurement, test, or examination described in CPTEST. It can be used as a column name when converting a dataset from a vertical to a horizontal format. The value in CPTESTCD cannot be longer than 8 characters, nor can it start with a number (e.g., \"1TEST\" is not valid). CPTESTCD cannot contain characters other than letters, numbers, or underscores. Examples: \"MONO\", \"MNS\". | Role: Topic | Type: Char | Core: Req | Class: Findings",
  "CP.CPTEST": "CPTEST in CP domain | Label: Name of Measurement, Test or Examination | Description: Long name for CPTESTCD. For cell phenotyping, the name (often abbreviated) of the cell population, as it is generally accepted by the scientific community, is populated (rather than a colloquial designation based on a primary marker, e.g., TLym Help rather than CD4). When the test is for a sublineage which can only be identified by specifying additional markers (i.e., has not been given a name) or which is further restricted to a subpopulation based on a particular cell state (e.g., activated, proliferating, apoptotic), the Sublineage Marker String (CPSBMRKS), Cell State (CPCELSTA), and Cell State Marker String (CPCSMRKS) variables are additionally populated and the value in CPTEST is suffixed with \"Sub\" to denote that it is a subset of the population identified in CPTEST (e.g., Monocytes Sub). \\n The value in CPTEST cannot be longer than 40 characters. | Role: Synonym Qualifier | Type: Char | Core: Req | Class: Findings",
  "CP.CPSBMRKS": "CPSBMRKS in CP domain | Label: Sublineage Marker String | Description: Used to further subset the cell population identified in CPTEST based on the use of additional marker(s) that define a sublineage. The value in CPSBMRKS is used in combination with values in CPTEST and CPCELSTA to fully describe the cell population being measured. As such, it is an essential component of the full test name. \\n For example, three unnamed sublineages of monocytes have been identified as: CCR2+CD16-, CCR2-CD16+, and CCR2+CD16+. Whereas the entire monocyte cell population can be defined as CD14+ cells, the additional CCR2 and CD16 markers are used to differentiate one sublineage from another. As none of these sublineages have been given names, they are only known by the CCR2 and CD16 marker combinations. By associating the CPTEST value of \"Monocytes Sub\" with, for example, a value of \"CCR2+CD16-\" in CPSBMRKS, the full test is defined to be the CCR2+CD16- monocyte subpopulation. | Role: Variable Qualifier | Type: Char | Core: Perm | Class: Findings",
  "CP.CPCELSTA": "CPCELSTA in CP domain | Label: Cell State | Description: A textual description of a subset of the cell population identified in CPTEST based on a particular functional and/or biological state (e.g., \"ACTIVATED\", \"PROLIFERATING\", \"SENESCENT\"). When populated, the values in CPCELSTA and CPSMRKS, in combination with the values in CPTEST and CPSBMRKS, fully describe the cell population being measured. | Role: Variable Qualifier | Type: Char | Core: Perm | Class: Findings",
  "CP.CPCSMRKS": "CPCSMRKS in CP domain | Label: Cell State Marker String | Description: Identifies the marker(s) or indicator(s) used to define the cell state (i.e., the value in CPCELSTA). \\n For example, when Ki67 expression is used to determine that a cell population is in a proliferating state (i.e., CPCELSTA value=\"PROLIFERATING\"), the value \"Ki67+\" in CPCSMRKS indicates that positive expression of Ki67 was used to define the population as proliferating. Similarly, a value of \"Ki67-\" in CPCSMRKS would indicate that lack of expression of Ki67 defined the \"NON-PROLIFERATING\" cell state in CPCELSTA. The CPCSMRKS value is useful for quickly determining which marker(s) were used to classify (i.e., operationally define) a cell population based on a functional/biological state. | Role: Variable Qualifier | Type: Char | Core: Perm | Class: Findings",
  "CP.CPTSTCND": "CPTSTCND in CP domain | Label: Test Condition | Description: Identifies any planned condition imposed by the assay system on the specimen at the time the test is performed. --TSTCND is generally used to distinguish between two or more records where the same assay is performed under varying (as opposed to fixed) conditions, usually for the purpose of making a comparison. For example, when the same assay (identified in --TEST) is performed under stimulated and non-stimulated conditions, the --TSTCND variable is used distinguish between the records. | Role: Variable Qualifier | Type: Char | Core: Perm | Class: Findings",
  "CP.CPCNDAGT": "CPCNDAGT in CP domain | Label: Test Condition Agent | Description: The textual description of the agent, if applicable, used to impose the condition identified in CPTSTCND. For example, records might be produced for the same assay run under stimulating (CPTSTCND value = \"STIMULATED\") conditions produced by different stimulating agents (e.g., phorbol myristate acetate, concanavalin A, PHA-P, TNF-alpha, Ionomycin, candida antigen). | Role: Record Qualifier | Type: Char | Core: Perm | Class: Findings",
  "CP.CPBDAGNT": "CPBDAGNT in CP domain | Label: Binding Agent | Description: The textual description of the agent that is binding to the entity in the CPTEST variable. The CPBDAGNT variable is used to indicate that there is a binding relationship between the entities in the CPTEST and CPBDAGNT variables, regardless of direction. \\n The binding agent may be, but is not limited to, a test article; a portion of a test article; a substance related to a test article; an endogenous molecule; an allergen; an infectious agent; or a reagent (e.g., primary antibody) that confers the binding specificity for the measurement defined in CPTEST when it is needed to uniquely identify the test. | Role: Record Qualifier | Type: Char | Core: Perm | Class: Findings",
  "CP.CPABCLID": "CPABCLID in CP domain | Label: Antibody Clone Identifier | Description: Identifies the antibody clone (e.g., supplier-provided catalog name) used to confer specificity for the binding agent specified in CPBDAGNT. | Role: Record Qualifier | Type: Char | Core: Perm | Class: Findings",
  "CP.CPMRKSTR": "CPMRKSTR in CP domain | Label: Marker String | Description: The text string identifying the full set of markers/indicators used by the laboratory to operationally define the complete test based on the combination of CPTEST, CPSBMRKS, and CPCELSTA. Because laboratories often use different markers/indicators to identify a cell population, the relationship between a named cell population in CPTEST (as combined with CPSBMRKS and CPCELSTA values) and the set of markers used to identify that population is many-to-one. To ensure nuances important for accurately interpreting the data are accounted for and which arise from the use of different sets of markers, it is necessary to operationally define the test in terms of the complete set of markers/indicators used to perform that test. | Role: Record Qualifier | Type: Char | Core: Exp | Class: Findings",
  "CP.CPGATE": "CPGATE in CP domain | Label: Gate | Description: The sponsor-defined name assigned to a gate. Gates are electronic (i.e., a device setting or software-defined) boundaries set by a user to virtually parse a specimen into discrete populations based on a set of defined characteristics (e.g., presence, absence, or intensity of expression of various markers; physical size; internal complexity or granularity). Gates are used to constrain data collection or analysis to a specific cell population or region of interest within the specimen. | Role: Record Qualifier | Type: Char | Core: Perm | Class: Findings",
  "CP.CPGATDEF": "CPGATDEF in CP domain | Label: Gate Definition | Description: The text string identifying the set of parameters and the order in which they are applied to define the gating strategy. In practice, a series of 2-dimensional sub-gates based on different cell characteristics (i.e., markers/indicators/physical properties) are most often combined until the cell population of interest is sufficiently resolved (i.e., electronically isolated) from other cell populations contained within the specimen. \\n For complex analyses, differences in gating strategies can produce subtle differences in results obtained for a test. To ensure nuances important for accurately interpreting the data are accounted for and which arise from the use of different gating strategies, it is often necessary to qualify the test in terms of the gating strategy. For some purposes, however, and at the discretion of the sponsor, only the ultimate or penultimate gate is identified. When specifying the gating strategy in CPGATDEF, each sub-gate should be listed in the order it was applied and separated from the next sub-gate using the pipe/vertical line (\"|\") character. | Role: Record Qualifier | Type: Char | Core: Perm | Class: Findings",
  "CP.CPSPTSTD": "CPSPTSTD in CP domain | Label: Sponsor Test Description | Description: Sponsor's description of a test. The variable is intended to contain highly structured test description metadata used by a sponsor to unambiguously define (label) a test. Such values generally reside in a sponsor/laboratory test metadata repository. CPSPTSTD is not intended for unstructured (spontaneous) free text. \\n An example of appropriate usage is when it is necessary to include identifying information for a target cell population on which a test is conducted when the target population is not part of the test name, e.g., tests for quantitative expression of a particular marker on a specific cell population. | Role: Record Qualifier | Type: Char | Core: Perm | Class: Findings",
  "CP.CPCAT": "CPCAT in CP domain | Label: Category | Description: Used to define a category of topic-variable values across subjects. Examples: \"IMMUNOPHENOTYPING\", \"CELL FUNCTION\", \"TARGET ENGAGEMENT\". | Role: Grouping Qualifier | Type: Char | Core: Perm | Class: Findings",
  "CP.CPSCAT": "CPSCAT in CP domain | Label: Subcategory | Description: A further categorization of CPCAT. | Role: Grouping Qualifier | Type: Char | Core: Perm | Class: Findings",
  "CP.CPTSTPNL": "CPTSTPNL in CP domain | Label: Test Panel | Description: Sponsor-defined textual description used to group tests run together as part of a test panel. Can be used with --GRPID to ensure that relationships between associated tests are accurately identified. | Role: Grouping Qualifier | Type: Char | Core: Perm | Class: Findings",
  "CP.CPORRES": "CPORRES in CP domain | Label: Result or Finding in Original Units | Description: Result of the measurement or finding as originally received or collected. | Role: Result Qualifier | Type: Char | Core: Exp | Class: Findings",
  "CP.CPORRESU": "CPORRESU in CP domain | Label: Original Units | Description: Original units in which the data were collected. The unit for CPORRES. Examples: \"10^6/L\", \"%\", \"MESF\". | Role: Variable Qualifier | Type: Char | Core: Perm | Class: Findings",
  "CP.CPRESSCL": "CPRESSCL in CP domain | Label: Result Scale | Description: Classifies the scale of the original result value with respect to whether the result is quantitative, ordinal, nominal, or narrative. | Role: Record Qualifier | Type: Char | Core: Perm | Class: Findings",
  "CP.CPRESTYP": "CPRESTYP in CP domain | Label: Result Type | Description: Classifies the kind of result (i.e., property type) originally reported for the test. Examples: \"NUMBER CONCENTRATION\", \"NUMBER FRACTION\", \"RATIO\". | Role: Record Qualifier | Type: Char | Core: Perm | Class: Findings",
  "CP.CPCOLSRT": "CPCOLSRT in CP domain | Label: Collected Summary Result Type | Description: Used to indicate the type of collected summary result. This includes source summary results collected on a CRF or provided by an external vendor (e.g., central lab). If the summary result is derived using individual source data records, this summary result should be represented in ADaM. If a sponsor has both a collected summary result and a derived summary result, the collected summary result should be represented in SDTM and the derived summary result should be represented in ADaM. | Role: Record Qualifier | Type: Char | Core: Perm | Class: Findings",
  "CP.CPORNRLO": "CPORNRLO in CP domain | Label: Reference Range Lower Limit in Orig Unit | Description: Lower end of reference range for continuous measurement in original units. Should be populated only for continuous results. | Role: Variable Qualifier | Type: Char | Core: Perm | Class: Findings",
  "CP.CPORNRHI": "CPORNRHI in CP domain | Label: Reference Range Upper Limit in Orig Unit | Description: Upper end of reference range for continuous measurement in original units. Should be populated only for continuous results. | Role: Variable Qualifier | Type: Char | Core: Perm | Class: Findings",
  "CP.CPSTRESC": "CPSTRESC in CP domain | Label: Result or Finding in Standard Format | Description: Contains the result value for all findings, copied or derived from CPORRES in a standard format or in standard units. CPSTRESC should store all results or findings in character format; if results are numeric, they should also be stored in numeric format in CPSTRESN. | Role: Result Qualifier | Type: Char | Core: Exp | Class: Findings",
  "CP.CPSTRESN": "CPSTRESN in CP domain | Label: Numeric Result/Finding in Standard Units | Description: Used for continuous or numeric results or findings in standard format; copied in numeric format from CPSTRESC. CPSTRESN should store all numeric test results or findings. | Role: Result Qualifier | Type: Num | Core: Perm | Class: Findings",
  "CP.CPSTRESU": "CPSTRESU in CP domain | Label: Standard Units | Description: Standardized unit used for CPSTRESC or CPSTRESN. | Role: Variable Qualifier | Type: Char | Core: Perm | Class: Findings",
  "CP.CPSTNRLO": "CPSTNRLO in CP domain | Label: Reference Range Lower Limit-Std Units | Description: Lower end of reference range for continuous measurements for CPSTRESC/CPSTRESN in standardized units. Should be populated only for continuous results. | Role: Variable Qualifier | Type: Num | Core: Perm | Class: Findings",
  "CP.CPSTNRHI": "CPSTNRHI in CP domain | Label: Reference Range Upper Limit-Std Units | Description: Upper end of reference range for continuous measurements in standardized units. Should be populated only for continuous results. | Role: Variable Qualifier | Type: Num | Core: Perm | Class: Findings",
  "CP.CPNRIND": "CPNRIND in CP domain | Label: Reference Range Indicator | Description: Indicates where the value falls with respect to reference range defined by CPORNRLO and CPORNRHI, CPSTNRLO and CPSTNRHI, or by CPSTNRC. Examples: \"NORMAL\", \"ABNORMAL\", \"HIGH\", \"LOW\". Sponsors should specify in the study metadata (Comments column in the Define-XML document) whether CPNRIND refers to the original or standard reference ranges and results. CPNRIND should not be used to indicate clinical significance. | Role: Variable Qualifier | Type: Char | Core: Perm | Class: Findings",
  "CP.CPSTAT": "CPSTAT in CP domain | Label: Completion Status | Description: Used to indicate that the test was not performed or that it was attempted but did not generate a result. Should be null if a result exists in CPORRES. | Role: Record Qualifier | Type: Char | Core: Perm | Class: Findings",
  "CP.CPREASND": "CPREASND in CP domain | Label: Reason Not Done | Description: Describes why a test was not performed, e.g., \"BROKEN EQUIPMENT\", \"SUBJECT REFUSED\", \"SPECIMEN LOST\". Used in conjunction with CPSTAT when value is \"NOT DONE\". | Role: Record Qualifier | Type: Char | Core: Perm | Class: Findings",
  "CP.CPNAM": "CPNAM in CP domain | Label: Vendor Name | Description: The name or identifier of the laboratory that performed the test. | Role: Record Qualifier | Type: Char | Core: Perm | Class: Findings",
  "CP.CPLOINC": "CPLOINC in CP domain | Label: LOINC Code | Description: Code for the test from the LOINC code system. The sponsor is expected to provide the dictionary name and version used to map the terms utilizing the Define-XML external codelist attributes. | Role: Synonym Qualifier | Type: Char | Core: Perm | Class: Findings",
  "CP.CPSPEC": "CPSPEC in CP domain | Label: Specimen Type | Description: Defines the type of specimen used for a measurement. Examples: \"BLOOD\", \"BONE MARROW\". | Role: Record Qualifier | Type: Char | Core: Perm | Class: Findings",
  "CP.CPSPCCND": "CPSPCCND in CP domain | Label: Specimen Condition | Description: The physical state or quality of a specimen for an assessment. Example: \"CLOTTED\". | Role: Record Qualifier | Type: Char | Core: Perm | Class: Findings",
  "CP.CPMETHOD": "CPMETHOD in CP domain | Label: Method of Test or Examination | Description: Method of the test or examination. Example: \"FLOW CYTOMETRY\". | Role: Record Qualifier | Type: Char | Core: Perm | Class: Findings",
  "CP.CPANMETH": "CPANMETH in CP domain | Label: Analysis Method | Description: Analysis method applied to obtain a summarized result. Analysis method describes the method of secondary processing applied to a complex observation result. | Role: Record Qualifier | Type: Char | Core: Perm | Class: Findings",
  "CP.CPLOBXFL": "CPLOBXFL in CP domain | Label: Last Observation Before Exposure Flag | Description: Operationally-derived indicator used to identify the last non-missing value prior to RFXSTDTC. The value should be \"Y\" or null. | Role: Record Qualifier | Type: Char | Core: Perm | Class: Findings",
  "CP.CPBLFL": "CPBLFL in CP domain | Label: Baseline Flag | Description: Indicator used to identify a baseline value. The value should be \"Y\" or null. | Role: Record Qualifier | Type: Char | Core: Perm | Class: Findings",
  "CP.CPDRVFL": "CPDRVFL in CP domain | Label: Derived Flag | Description: Used to indicate a derived record. The value should be \"Y\" or null. Records that represent the average of other records, or do not come from the CRF, or are not as originally received or collected are examples of records that might be derived for the submission datasets. If CPDRVFL = \"Y\", then CPORRES may be null, with CPSTRESC and (if numeric) CPSTRESN having the derived value. | Role: Record Qualifier | Type: Char | Core: Perm | Class: Findings",
  "CP.CPCLSIG": "CPCLSIG in CP domain | Label: Clinically Significant, Collected | Description: Used to indicate whether a collected observation is clinically significant based on judgement. | Role: Record Qualifier | Type: Char | Core: Perm | Class: Findings",
  "CP.VISITNUM": "VISITNUM in CP domain | Label: Visit Number | Description: Clinical encounter number. Numeric version of VISIT, used for sorting. | Role: Timing | Type: Num | Core: Perm | Class: Findings",
  "CP.VISIT": "VISIT in CP domain | Label: Visit Name | Description: Protocol-defined description of clinical encounter. May be used in addition to VISITNUM and/or VISITDY. | Role: Timing | Type: Char | Core: Perm | Class: Findings",
  "CP.VISITDY": "VISITDY in CP domain | Label: Planned Study Day of Visit | Description: Planned study day of the visit based upon RFSTDTC in Demographics. Should be an integer. | Role: Timing | Type: Num | Core: Perm | Class: Findings",
  "CP.TAETORD": "TAETORD in CP domain | Label: Planned Order of Element within Arm | Description: Number that gives the planned order of the element within the arm. | Role: Timing | Type: Num | Core: Perm | Class: Findings",
  "CP.EPOCH": "EPOCH in CP domain | Label: Epoch | Description: Epoch associated with the start date/time of the observation, or the date/time of collection if start date/time is not collected. | Role: Timing | Type: Char | Core: Perm | Class: Findings",
  "CP.CPDTC": "CPDTC in CP domain | Label: Date/Time of Collection | Description: Date/time of specimen collection represented in ISO 8601 character format. | Role: Timing | Type: Char | Core: Exp | Class: Findings",
  "CP.CPDY": "CPDY in CP domain | Label: Study Day of Visit/Collection/Exam | Description: Study day of specimen collection, measured in integer days. Algorithm for calculations must be relative to the sponsor-defined RFSTDTC value in Demographics. | Role: Timing | Type: Num | Core: Perm | Class: Findings",
  "CP.CPTPT": "CPTPT in CP domain | Label: Planned Time Point Name | Description: Text description of time when a specimen is to be taken, as defined in the protocol. This may be represented as an elapsed time relative to a fixed reference point (i.e., to the value in CPTPTREF). Example: \"1 hour post\". | Role: Timing | Type: Char | Core: Perm | Class: Findings",
  "CP.CPTPTNUM": "CPTPTNUM in CP domain | Label: Planned Time Point Number | Description: Numerical version of CPTPT to aid in sorting. When CPTPT is represented as an elapsed time relative to a fixed reference point (i.e., to the value in CPTPTREF), the values in CPTPTNUM should be assigned in ascending order relative to the value in CPTPTREF. For example, records for time points where CPTPT = \"5 minutes post\", 1 hour post\", and \"4 hours post\" could be represented in CPTPTNUM as \"1\", \"2\", and \"3\", which maintains the order between CPTPT and CPTPTNUM with respect to the fixed time point reference in CPTPTREF. | Role: Timing | Type: Num | Core: Perm | Class: Findings",
  "CP.CPELTM": "CPELTM in CP domain | Label: Planned Elapsed Time from Time Point Ref | Description: Planned elapsed time relative to the planned fixed reference value in CPTPTREF, represented in ISO 8601 duration format. Examples: \"-PT15M\" to represent 15 minutes prior to the reference time point indicated by CPTPTREF, \"T8H\" to represent 8 hours after the reference time point represented by CPTPTREF. | Role: Timing | Type: Char | Core: Perm | Class: Findings",
  "CP.CPTPTREF": "CPTPTREF in CP domain | Label: Time Point Reference | Description: Descriptive name of the fixed reference point referred to by CPTPT, CPTPTNUM, and CPELTM. Examples: \"PREVIOUS DOSE\", \"PREVIOUS MEAL\". | Role: Timing | Type: Char | Core: Perm | Class: Findings",
  "CP.CPRFTDTC": "CPRFTDTC in CP domain | Label: Date/Time of Reference Time Point | Description: Date/time for a fixed reference time point defined by CPTPTREF. | Role: Timing | Type: Char | Core: Perm | Class: Findings",
  "CV.STUDYID": "STUDYID in CV domain | Label: Study Identifier | Description: Unique identifier for a study. | Role: Identifier | Type: Char | Core: Req | Class: Findings",
  "CV.DOMAIN": "DOMAIN in CV domain | Label: Domain Abbreviation | Description: Two-character abbreviation for the domain. | Role: Identifier | Type: Char | Core: Req | Class: Findings",
  "CV.USUBJID": "USUBJID in CV domain | Label: Unique Subject Identifier | Description: Identifier used to uniquely identify a subject across all studies for all applications or submissions involving the product. | Role: Identifier | Type: Char | Core: Req | Class: Findings",
  "CV.CVSEQ": "CVSEQ in CV domain | Label: Sequence Number | Description: Sequence number to ensure uniqueness of records within a dataset for a subject. May be any valid number (including decimals) and does not have to start at 1. | Role: Identifier | Type: Num | Core: Req | Class: Findings",
  "CV.CVGRPID": "CVGRPID in CV domain | Label: Group ID | Description: Optional group identifier, used to link together a block of related records within a subject in a domain. | Role: Identifier | Type: Char | Core: Perm | Class: Findings",
  "CV.CVREFID": "CVREFID in CV domain | Label: Reference ID | Description: Optional internal or external identifier. | Role: Identifier | Type: Char | Core: Perm | Class: Findings",
  "CV.CVSPID": "CVSPID in CV domain | Label: Sponsor-Defined Identifier | Description: Sponsor-defined identifier. Example: a preprinted line identifier on a CRF. | Role: Identifier | Type: Char | Core: Perm | Class: Findings",
  "CV.CVLNKID": "CVLNKID in CV domain | Label: Link ID | Description: Identifier used to link related records across domains. This may be a one-to-one or a one-to-many relationship. | Role: Identifier | Type: Char | Core: Perm | Class: Findings",
  "CV.CVLNKGRP": "CVLNKGRP in CV domain | Label: Link Group | Description: Identifier used to link related records across domains. This will usually be a many-to-one relationship. | Role: Identifier | Type: Char | Core: Perm | Class: Findings",
  "CV.CVTESTCD": "CVTESTCD in CV domain | Label: Short Name of Cardiovascular Test | Description: Short name of the measurement, test, or examination described in CVTEST. It can be used as a column name when converting a dataset from a vertical to a horizontal format. The value in CVTESTCD cannot be longer than 8 characters, nor can it start with a number (e.g., \"1TEST\" would not be valid). CVTESTCD cannot contain characters other than letters, numbers, or underscores. | Role: Topic | Type: Char | Core: Req | Class: Findings",
  "CV.CVTEST": "CVTEST in CV domain | Label: Name of Cardiovascular Test | Description: Long name For CVTESTCD. The value in CVTEST cannot be longer than 40 characters. | Role: Synonym Qualifier | Type: Char | Core: Req | Class: Findings",
  "CV.CVCAT": "CVCAT in CV domain | Label: Category for Cardiovascular Test | Description: Used to define a category of topic-variable values. | Role: Grouping Qualifier | Type: Char | Core: Perm | Class: Findings",
  "CV.CVSCAT": "CVSCAT in CV domain | Label: Subcategory for Cardiovascular Test | Description: Used to define a further categorization of CVCAT values. | Role: Grouping Qualifier | Type: Char | Core: Perm | Class: Findings",
  "CV.CVPOS": "CVPOS in CV domain | Label: Position of Subject During Observation | Description: Position of the subject during a measurement or examination. Examples: \"SUPINE\", \"STANDING\", \"SITTING\". | Role: Record Qualifier | Type: Char | Core: Perm | Class: Findings",
  "CV.CVORRES": "CVORRES in CV domain | Label: Result or Finding in Original Units | Description: Result of the measurement or finding as originally received or collected. | Role: Result Qualifier | Type: Char | Core: Exp | Class: Findings",
  "CV.CVORRESU": "CVORRESU in CV domain | Label: Original Units | Description: Original units in which the data were collected. Unit for CVORRES. | Role: Variable Qualifier | Type: Char | Core: Perm | Class: Findings",
  "CV.CVSTRESC": "CVSTRESC in CV domain | Label: Character Result/Finding in Std Format | Description: Contains the result value for all findings, copied or derived, from CVORRES in a standard format or in standard units. CVSTRESC should store all results or findings in character format; if results are numeric, they should also be stored in numeric format in CVSTRESN. For example, if various tests have results \"NONE\", \"NEG\", and \"NEGATIVE\" in CVORRES and these results effectively have the same meaning, they could be represented in standard format in CVSTRESC as \"NEGATIVE\". | Role: Result Qualifier | Type: Char | Core: Exp | Class: Findings",
  "CV.CVSTRESN": "CVSTRESN in CV domain | Label: Numeric Result/Finding in Standard Units | Description: Used for continuous or numeric results or findings in standard format; copied in numeric format from CVSTRESC. CVSTRESN should store all numeric test results or findings. | Role: Result Qualifier | Type: Num | Core: Perm | Class: Findings",
  "CV.CVSTRESU": "CVSTRESU in CV domain | Label: Standard Units | Description: Standardized units used for CVSTRESC and CVSTRESN. | Role: Variable Qualifier | Type: Char | Core: Perm | Class: Findings",
  "CV.CVSTAT": "CVSTAT in CV domain | Label: Completion Status | Description: Used to indicate that a question was not asked or a test was not done, or a test was attempted but did not generate a result. Should be null or have a value of \"NOT DONE\". | Role: Record Qualifier | Type: Char | Core: Perm | Class: Findings",
  "CV.CVREASND": "CVREASND in CV domain | Label: Reason Not Done | Description: Describes why a measurement or test was not performed (e.g., \"BROKEN EQUIPMENT\", \"SUBJECT REFUSED\"). Used in conjunction with CVSTAT when value is \"NOT DONE\". | Role: Record Qualifier | Type: Char | Core: Perm | Class: Findings",
  "CV.CVLOC": "CVLOC in CV domain | Label: Location Used for the Measurement | Description: Anatomical location of the subject relevant to the collection of the measurement. Examples: \"HEART\", \"LEFT VENTRICLE\". | Role: Record Qualifier | Type: Char | Core: Perm | Class: Findings",
  "CV.CVLAT": "CVLAT in CV domain | Label: Laterality | Description: Qualifier for anatomical location or specimen further detailing laterality. Examples: \"RIGHT\", \"LEFT\", \"BILATERAL\", \"UNILATERAL\". | Role: Variable Qualifier | Type: Char | Core: Perm | Class: Findings",
  "CV.CVDIR": "CVDIR in CV domain | Label: Directionality | Description: Qualifier for anatomical location or specimen further detailing directionality. Examples: \"ANTERIOR\", \"LOWER\", \"PROXIMAL\". | Role: Variable Qualifier | Type: Char | Core: Perm | Class: Findings",
  "CV.CVMETHOD": "CVMETHOD in CV domain | Label: Method of Test or Examination | Description: Method used to create the result. | Role: Record Qualifier | Type: Char | Core: Perm | Class: Findings",
  "CV.CVLOBXFL": "CVLOBXFL in CV domain | Label: Last Observation Before Exposure Flag | Description: Operationally-derived indicator used to identify the last non-missing value prior to RFXSTDTC. The value should be \"Y\" or null. | Role: Record Qualifier | Type: Char | Core: Exp | Class: Findings",
  "CV.CVBLFL": "CVBLFL in CV domain | Label: Baseline Flag | Description: Indicator used to identify a baseline value. Should be \"Y\" or null. Note that CVBLFL is retained for backward compatibility. The authoritative baseline for statistical analysis is in an ADaM dataset. | Role: Record Qualifier | Type: Char | Core: Perm | Class: Findings",
  "CV.CVDRVFL": "CVDRVFL in CV domain | Label: Derived Flag | Description: Used to indicate a derived record (i.e., a record that represents the average of other records, such as a computed baseline). Should be \"Y\" or null. | Role: Record Qualifier | Type: Char | Core: Perm | Class: Findings",
  "CV.CVEVAL": "CVEVAL in CV domain | Label: Evaluator | Description: Role of the person who provided the evaluation. Used only for results that are subjective (e.g., assigned by a person or a group). Examples: \"ADJUDICATION COMMITTEE\", \" INDEPENDENT ASSESSOR\", \"RADIOLOGIST\". | Role: Record Qualifier | Type: Char | Core: Perm | Class: Findings",
  "CV.CVEVALID": "CVEVALID in CV domain | Label: Evaluator Identifier | Description: Used to distinguish multiple evaluators with the same role recorded in CVEVAL. Examples: \"RADIOLOGIST1\" or \"RADIOLOGIST2\". | Role: Variable Qualifier | Type: Char | Core: Perm | Class: Findings",
  "CV.VISITNUM": "VISITNUM in CV domain | Label: Visit Number | Description: Clinical encounter number. Numeric version of VISIT, used for sorting. | Role: Timing | Type: Num | Core: Exp | Class: Findings",
  "CV.VISIT": "VISIT in CV domain | Label: Visit Name | Description: Protocol-defined description of clinical encounter. May be used in addition to VISITNUM and/or VISITDY. | Role: Timing | Type: Char | Core: Perm | Class: Findings",
  "CV.VISITDY": "VISITDY in CV domain | Label: Planned Study Day of Visit | Description: Planned study day of VISIT. Should be an integer. | Role: Timing | Type: Num | Core: Perm | Class: Findings",
  "CV.TAETORD": "TAETORD in CV domain | Label: Planned Order of Element within Arm | Description: Number that gives the planned order of the element within the arm for the element in which the assessment was made. | Role: Timing | Type: Num | Core: Perm | Class: Findings",
  "CV.EPOCH": "EPOCH in CV domain | Label: Epoch | Description: Epoch associated with the date/time at which the assessment was made. | Role: Timing | Type: Char | Core: Perm | Class: Findings",
  "CV.CVDTC": "CVDTC in CV domain | Label: Date/Time of Test | Description: Collection date and time of an observation. | Role: Timing | Type: Char | Core: Exp | Class: Findings",
  "CV.CVDY": "CVDY in CV domain | Label: Study Day of Visit/Collection/Exam | Description: Actual study day of visit/collection/exam expressed in integer days relative to the sponsor-defined RFSTDTC in Demographics. | Role: Timing | Type: Num | Core: Perm | Class: Findings",
  "CV.CVTPT": "CVTPT in CV domain | Label: Planned Time Point Name | Description: Text description of time when a measurement or observation should be taken, as defined in the protocol. This may be represented as an elapsed time relative to a fixed reference point, such as time of last dose. See CVTPTNUM and CVTPTREF. | Role: Timing | Type: Char | Core: Perm | Class: Findings",
  "CV.CVTPTNUM": "CVTPTNUM in CV domain | Label: Planned Time Point Number | Description: Numeric version of planned time point used in sorting. | Role: Timing | Type: Num | Core: Perm | Class: Findings",
  "CV.CVELTM": "CVELTM in CV domain | Label: Planned Elapsed Time from Time Point Ref | Description: Planned elapsed time relative to a planned fixed reference (CVTPTREF). Examples: \"PREVIOUS DOSE\", \"PREVIOUS MEAL\". This variable is useful where there are repetitive measures. Not a clock time or a date/time variable, but an interval, represented as ISO duration. | Role: Timing | Type: Char | Core: Perm | Class: Findings",
  "CV.CVTPTREF": "CVTPTREF in CV domain | Label: Time Point Reference | Description: Description of the fixed reference point referred to by CVELTM, CVTPTNUM, and CVTPT. Examples: \"PREVIOUS DOSE\", \"PREVIOUS MEAL\". | Role: Timing | Type: Char | Core: Perm | Class: Findings",
  "CV.CVRFTDTC": "CVRFTDTC in CV domain | Label: Date/Time of Reference Time Point | Description: Date/time for a fixed reference time point defined by CVTPTREF. | Role: Timing | Type: Char | Core: Perm | Class: Findings",
  "DA.STUDYID": "STUDYID in DA domain | Label: Study Identifier | Description: Unique identifier for a study within the submission. | Role: Identifier | Type: Char | Core: Req | Class: Findings",
  "DA.DOMAIN": "DOMAIN in DA domain | Label: Domain Abbreviation | Description: Two-character abbreviation for the domain. | Role: Identifier | Type: Char | Core: Req | Class: Findings",
  "DA.USUBJID": "USUBJID in DA domain | Label: Unique Subject Identifier | Description: Identifier used to uniquely identify a subject across all studies for all applications or submissions involving the product. | Role: Identifier | Type: Char | Core: Req | Class: Findings",
  "DA.DASEQ": "DASEQ in DA domain | Label: Sequence Number | Description: Sequence number given to ensure uniqueness of subject records within a domain. May be any valid number. | Role: Identifier | Type: Num | Core: Req | Class: Findings",
  "DA.DAGRPID": "DAGRPID in DA domain | Label: Group ID | Description: Used to tie together a block of related records in a single domain for a subject. | Role: Identifier | Type: Char | Core: Perm | Class: Findings",
  "DA.DAREFID": "DAREFID in DA domain | Label: Reference ID | Description: Optional internal or external identifier such as a code from the product packaging (e.g., bottle label, package label, kit label). | Role: Identifier | Type: Char | Core: Perm | Class: Findings",
  "DA.DASPID": "DASPID in DA domain | Label: Sponsor-Defined Identifier | Description: Sponsor-defined reference number. May be preprinted on the CRF as an explicit line identifier or defined in the sponsor's operational database. Examples: Line number on the Product Accountability CRF page, a code from the product packaging (e.g., bottle label, package label, kit label). | Role: Identifier | Type: Char | Core: Perm | Class: Findings",
  "DA.DALNKID": "DALNKID in DA domain | Label: Link ID | Description: Identifier used to link related records across domains. This may be a one-to-one or a one-to-many relationship. | Role: Identifier | Type: Char | Core: Perm | Class: Findings",
  "DA.DALNKGRP": "DALNKGRP in DA domain | Label: Link Group ID | Description: Identifier used to link related records across domains. This will usually be a many-to-one relationship. | Role: Identifier | Type: Char | Core: Perm | Class: Findings",
  "DA.DATESTCD": "DATESTCD in DA domain | Label: Short Name of Accountability Assessment | Description: Short character value for DATEST used as a column name when converting a dataset from a vertical format to a horizontal format. The short value can be up to 8 characters and cannot begin with a number or contain characters other than letters, numbers, or underscores. Examples: \"DISPAMT\", \"RETAMT\". | Role: Topic | Type: Char | Core: Req | Class: Findings",
  "DA.DATEST": "DATEST in DA domain | Label: Name of Accountability Assessment | Description: Verbatim name corresponding to the topic variable of the test or examination used to obtain the product accountability assessment. The value in DATEST cannot be longer than 40 characters. Examples: \"Dispensed Amount\", \"Returned Amount\". | Role: Synonym Qualifier | Type: Char | Core: Req | Class: Findings",
  "DA.DACAT": "DACAT in DA domain | Label: Category | Description: Used to define a category of topic-variable values. Examples: \"STUDY MEDICATION\", \"RESCUE MEDICATION\". | Role: Grouping Qualifier | Type: Char | Core: Perm | Class: Findings",
  "DA.DASCAT": "DASCAT in DA domain | Label: Subcategory | Description: Used to define a further categorization level for a group of related records. | Role: Grouping Qualifier | Type: Char | Core: Perm | Class: Findings",
  "DA.DAORRES": "DAORRES in DA domain | Label: Result or Finding in Original Units | Description: Result of the product accountability assessment as originally received or collected. | Role: Result Qualifier | Type: Char | Core: Exp | Class: Findings",
  "DA.DAORRESU": "DAORRESU in DA domain | Label: Original Units | Description: Unit for DAORRES. | Role: Variable Qualifier | Type: Char | Core: Perm | Class: Findings",
  "DA.DASTRESC": "DASTRESC in DA domain | Label: Result or Finding in Standard Format | Description: Contains the result value for all product accountability assessments copied or derived from DAORRES, in a standard format or in standard units. DASTRESC should store all results or findings in character format; if results are numeric, they should also be stored in numeric format in DASTRESN. | Role: Result Qualifier | Type: Char | Core: Exp | Class: Findings",
  "DA.DASTRESN": "DASTRESN in DA domain | Label: Numeric Result/Finding in Standard Units | Description: Used for continuous or numeric results or findings in standard format; copied in numeric format from DASTRESC. DASTRESN should store all numeric test results or findings. | Role: Result Qualifier | Type: Num | Core: Perm | Class: Findings",
  "DA.DASTRESU": "DASTRESU in DA domain | Label: Standard Units | Description: Standardized units used for DASTRESC and DASTRESN. | Role: Variable Qualifier | Type: Char | Core: Perm | Class: Findings",
  "DA.DASTAT": "DASTAT in DA domain | Label: Completion Status | Description: Used to indicate that a product accountability assessment was not done. Should be null or have a value of \"NOT DONE\". | Role: Record Qualifier | Type: Char | Core: Perm | Class: Findings",
  "DA.DAREASND": "DAREASND in DA domain | Label: Reason Not Done | Description: Reason not done. Used in conjunction with DASTAT when value is \"NOT DONE\". | Role: Record Qualifier | Type: Char | Core: Perm | Class: Findings",
  "DA.VISITNUM": "VISITNUM in DA domain | Label: Visit Number | Description: Clinical encounter number. Numeric version of VISIT, used for sorting. | Role: Timing | Type: Num | Core: Exp | Class: Findings",
  "DA.VISIT": "VISIT in DA domain | Label: Visit Name | Description: Protocol-defined description of a clinical encounter. May be used in addition to VISITNUM and/or VISITDY. | Role: Timing | Type: Char | Core: Perm | Class: Findings",
  "DA.VISITDY": "VISITDY in DA domain | Label: Planned Study Day of Visit | Description: Planned study day of the visit, based upon RFSTDTC in Demographics. | Role: Timing | Type: Num | Core: Perm | Class: Findings",
  "DA.TAETORD": "TAETORD in DA domain | Label: Planned Order of Element within Arm | Description: Number that gives the planned order of the element within the arm (see Section 7.2.1, Trial Arms). | Role: Timing | Type: Num | Core: Perm | Class: Findings",
  "DA.EPOCH": "EPOCH in DA domain | Label: Epoch | Description: Epoch associated with the start date/time of the observation, or the date/time of collection if start date/time is not collected. | Role: Timing | Type: Char | Core: Perm | Class: Findings",
  "DA.DADTC": "DADTC in DA domain | Label: Date/Time of Collection | Description: Date and time of the product accountability assessment represented in ISO 8601 character format. | Role: Timing | Type: Char | Core: Exp | Class: Findings",
  "DA.DADY": "DADY in DA domain | Label: Study Day of Visit/Collection/Exam | Description: Study day of product accountability assessment, measured in integer days. Algorithm for calculations must be relative to the sponsor-defined RFSTDTC in Demographics. | Role: Timing | Type: Num | Core: Perm | Class: Findings",
  "DD.STUDYID": "STUDYID in DD domain | Label: Study Identifier | Description: Unique identifier for a study. | Role: Identifier | Type: Char | Core: Req | Class: Findings",
  "DD.DOMAIN": "DOMAIN in DD domain | Label: Domain Abbreviation | Description: Two-character abbreviation for the domain. | Role: Identifier | Type: Char | Core: Req | Class: Findings",
  "DD.USUBJID": "USUBJID in DD domain | Label: Unique Subject Identifier | Description: Identifier used to uniquely identify a subject across all studies for all applications or submissions involving the product. | Role: Identifier | Type: Char | Core: Req | Class: Findings",
  "DD.DDSEQ": "DDSEQ in DD domain | Label: Sequence Number | Description: Sequence number given to ensure uniqueness of subject records within a domain. May be any valid number. | Role: Identifier | Type: Num | Core: Req | Class: Findings",
  "DD.DDTESTCD": "DDTESTCD in DD domain | Label: Death Detail Assessment Short Name | Description: Short name of the measurement, test, or examination described in DDTEST. It can be used as a column name when converting a dataset from a vertical to a horizontal format. The value in DDTESTCD cannot be longer than 8 characters, nor can it start with a number (e.g., \"1TEST\" is not valid). DDTESTCD cannot contain characters other than letters, numbers, or underscores. Examples: \"PRCDTH\", \"SECDTH\". | Role: Topic | Type: Char | Core: Req | Class: Findings",
  "DD.DDTEST": "DDTEST in DD domain | Label: Death Detail Assessment Name | Description: Long name for DDTESTCD. The value in DDTEST cannot be longer than 40 characters. Examples: \"Primary Cause of Death\", \"Secondary Cause of Death\". | Role: Synonym Qualifier | Type: Char | Core: Req | Class: Findings",
  "DD.DDORRES": "DDORRES in DD domain | Label: Result or Finding as Collected | Description: Result of the test defined in DDTEST, as originally received or collected. | Role: Result Qualifier | Type: Char | Core: Exp | Class: Findings",
  "DD.DDSTRESC": "DDSTRESC in DD domain | Label: Character Result/Finding in Std Format | Description: Contains the result or finding copied or derived from DDORRES in a standard format. | Role: Result Qualifier | Type: Char | Core: Exp | Class: Findings",
  "DD.DDRESCAT": "DDRESCAT in DD domain | Label: Result Category | Description: Used to categorize the result of a finding. Examples: \"TREATMENT RELATED\", \"NONTREATMENT RELATED\", \"UNDETERMINED\", \"ACCIDENTAL\". | Role: Variable Qualifier | Type: Char | Core: Perm | Class: Findings",
  "DD.DDEVAL": "DDEVAL in DD domain | Label: Evaluator | Description: Role of the person who provided the evaluation. | Role: Record Qualifier | Type: Char | Core: Perm | Class: Findings",
  "DD.DDDTC": "DDDTC in DD domain | Label: Date/Time of Collection | Description: Date/time of collection of the diagnosis or other death assessment data in ISO 8601 format. This is not necessarily the date of death. | Role: Timing | Type: Char | Core: Exp | Class: Findings",
  "DD.DDDY": "DDDY in DD domain | Label: Study Day of Collection | Description: Study day of the collection, in integer days. The algorithm for calculations must be relative to the sponsor-defined RFSTDTC variable in the Demographics (DM) domain. | Role: Timing | Type: Num | Core: Perm | Class: Findings",
  "EG.STUDYID": "STUDYID in EG domain | Label: Study Identifier | Description: Unique identifier for a study. | Role: Identifier | Type: Char | Core: Req | Class: Findings",
  "EG.DOMAIN": "DOMAIN in EG domain | Label: Domain Abbreviation | Description: Two-character abbreviation for the domain. | Role: Identifier | Type: Char | Core: Req | Class: Findings",
  "EG.USUBJID": "USUBJID in EG domain | Label: Unique Subject Identifier | Description: Identifier used to uniquely identify a subject across all studies for all applications or submissions involving the product. | Role: Identifier | Type: Char | Core: Req | Class: Findings",
  "EG.SPDEVID": "SPDEVID in EG domain | Label: Sponsor Device Identifier | Description: Sponsor-defined identifier for a device. | Role: Identifier | Type: Char | Core: Perm | Class: Findings",
  "EG.EGSEQ": "EGSEQ in EG domain | Label: Sequence Number | Description: Sequence number given to ensure uniqueness of subject records within a domain. May be any valid number. | Role: Identifier | Type: Num | Core: Req | Class: Findings",
  "EG.EGGRPID": "EGGRPID in EG domain | Label: Group ID | Description: Used to tie together a block of related records in a single domain for a subject. | Role: Identifier | Type: Char | Core: Perm | Class: Findings",
  "EG.EGREFID": "EGREFID in EG domain | Label: ECG Reference ID | Description: Internal or external ECG identifier. Example: \"334PT89\". | Role: Identifier | Type: Char | Core: Perm | Class: Findings",
  "EG.EGSPID": "EGSPID in EG domain | Label: Sponsor-Defined Identifier | Description: Sponsor-defined reference number. May be printed on the CRF as an explicit line identifier or defined in the sponsor's operational database. Example: Line number on the ECG page. | Role: Identifier | Type: Char | Core: Perm | Class: Findings",
  "EG.EGBEATNO": "EGBEATNO in EG domain | Label: ECG Beat Number | Description: A sequence number that identifies the beat within an ECG. | Role: Identifier | Type: Num | Core: Perm | Class: Findings",
  "EG.EGTESTCD": "EGTESTCD in EG domain | Label: ECG Test or Examination Short Name | Description: Short name of the measurement, test, or examination described in EGTEST. It can be used as a column name when converting a dataset from a vertical to a horizontal format. The value in EGTESTCD cannot be longer than 8 characters, nor can it start with a number (e.g., \"1TEST\" is not valid). EGTESTCD cannot contain characters other than letters, numbers, or underscores. Examples: \"PRAG\", \"QRSAG\". \\n Test codes are in 2 separate codelists, 1 for tests based on regular 10-second ECGs (EGTESTCD) and one 1 tests based on Holter monitoring (HETESTCD). | Role: Topic | Type: Char | Core: Req | Class: Findings",
  "EG.EGTEST": "EGTEST in EG domain | Label: ECG Test or Examination Name | Description: Verbatim name of the test or examination used to obtain the measurement or finding. The value in EGTEST cannot be longer than 40 characters. Examples: \"PR Interval, Aggregate\", \"QRS Duration, Aggregate\". \\n Test names are in 2 separate codelists, 1 for tests based on regular 10-second ECGs (EGTEST) and 1 for tests based on Holter monitoring (HETEST). | Role: Synonym Qualifier | Type: Char | Core: Req | Class: Findings",
  "EG.EGCAT": "EGCAT in EG domain | Label: Category for ECG | Description: Used to categorize ECG observations across subjects. Examples: \"MEASUREMENT\", \"FINDING\", \"INTERVAL\". | Role: Grouping Qualifier | Type: Char | Core: Perm | Class: Findings",
  "EG.EGSCAT": "EGSCAT in EG domain | Label: Subcategory for ECG | Description: A further categorization of the ECG. | Role: Grouping Qualifier | Type: Char | Core: Perm | Class: Findings",
  "EG.EGPOS": "EGPOS in EG domain | Label: ECG Position of Subject | Description: Position of the subject during a measurement or examination. Examples: \"SUPINE\", \"STANDING\", \"SITTING\". | Role: Record Qualifier | Type: Char | Core: Perm | Class: Findings",
  "EG.EGORRES": "EGORRES in EG domain | Label: Result or Finding in Original Units | Description: Result of the ECG measurement or finding as originally received or collected. Examples of expected values are \"62\" or \"0.151\" when the result is an interval or measurement, or \"ATRIAL FIBRILLATION\" or \"QT PROLONGATION\" when the result is a finding. | Role: Result Qualifier | Type: Char | Core: Exp | Class: Findings",
  "EG.EGORRESU": "EGORRESU in EG domain | Label: Original Units | Description: Original units in which the data were collected. The unit for EGORRES. Examples: \"sec\", \"msec\". | Role: Variable Qualifier | Type: Char | Core: Perm | Class: Findings",
  "EG.EGSTRESC": "EGSTRESC in EG domain | Label: Character Result/Finding in Std Format | Description: Contains the result value for all findings copied or derived from EGORRES, in a standard format or standard units. EGSTRESC should store all results or findings in character format; if results are numeric, they should also be stored in numeric format in EGSTRESN. For example, if a test has results of 62 beats/min, then EGORRES = \"62\", EGORRESU = \"beats/min\", EGSTRESC = \"62\", EGSTRESN = 62, and EGSTRESU = \"beats/min\" . For other examples, see Original and Standardized Results. Additional examples of result data: \"SINUS BRADYCARDIA\", \"ATRIAL FLUTTER\", \"ATRIAL FIBRILLATION\". \\n Test results are in 3 separate codelists: EGSTRESC for abnormal test results based on regular 10-second ECGs; HESTRESC for abnormal test results based on Holter monitoring, and NORMABNM for generic test results and/or responses to EGTEST = \"Interpretation\". | Role: Result Qualifier | Type: Char | Core: Exp | Class: Findings",
  "EG.EGSTRESN": "EGSTRESN in EG domain | Label: Numeric Result/Finding in Standard Units | Description: Used for continuous or numeric results or findings in standard format; copied in numeric format from EGSTRESC. EGSTRESN should store all numeric test results or findings. | Role: Result Qualifier | Type: Num | Core: Perm | Class: Findings",
  "EG.EGSTRESU": "EGSTRESU in EG domain | Label: Standard Units | Description: Standardized units used for EGSTRESC and EGSTRESN. | Role: Variable Qualifier | Type: Char | Core: Perm | Class: Findings",
  "EG.EGSTAT": "EGSTAT in EG domain | Label: Completion Status | Description: Used to indicate an ECG was not done, or an ECG measurement was not taken. Should be null if a result exists in EGORRES. | Role: Record Qualifier | Type: Char | Core: Perm | Class: Findings",
  "EG.EGREASND": "EGREASND in EG domain | Label: Reason ECG Not Done | Description: Describes why a measurement or test was not performed. Examples: \"BROKEN EQUIPMENT\", \"SUBJECT REFUSED\". Used in conjunction with EGSTAT when value is \"NOT DONE\". | Role: Record Qualifier | Type: Char | Core: Perm | Class: Findings",
  "EG.EGXFN": "EGXFN in EG domain | Label: ECG External File Path | Description: File name and path for the external ECG waveform file. | Role: Record Qualifier | Type: Char | Core: Perm | Class: Findings",
  "EG.EGNAM": "EGNAM in EG domain | Label: Vendor Name | Description: Name or identifier of the laboratory or vendor providing the test results. | Role: Record Qualifier | Type: Char | Core: Perm | Class: Findings",
  "EG.EGMETHOD": "EGMETHOD in EG domain | Label: Method of Test or Examination | Description: Method of the ECG test. Example: \"12-LEAD STANDARD\". | Role: Record Qualifier | Type: Char | Core: Perm | Class: Findings",
  "EG.EGLEAD": "EGLEAD in EG domain | Label: Lead Location Used for Measurement | Description: The lead used for the measurement. Examples: \"LEAD 1\", \"LEAD 2\", \"LEAD rV2\", \"LEAD V1\". | Role: Record Qualifier | Type: Char | Core: Perm | Class: Findings",
  "EG.EGLOBXFL": "EGLOBXFL in EG domain | Label: Last Observation Before Exposure Flag | Description: Operationally derived indicator used to identify the last non-missing value prior to RFXSTDTC. The value should be \"Y\" or null. | Role: Record Qualifier | Type: Char | Core: Exp | Class: Findings",
  "EG.EGBLFL": "EGBLFL in EG domain | Label: Baseline Flag | Description: Indicator used to identify a baseline value. Should be \"Y\" or null. Note that EGBLFL is retained for backward compatibility. The authoritative baseline for statistical analysis is in an ADaM dataset. | Role: Record Qualifier | Type: Char | Core: Perm | Class: Findings",
