{
  "Identifier": [
    "AG.STUDYID",
    "AG.DOMAIN",
    "AG.USUBJID",
    "AG.AGSEQ",
    "AG.AGGRPID",
    "AG.AGSPID",
    "AG.AGLNKID",
    "AG.AGLNKGRP",
    "CM.STUDYID",
    "CM.DOMAIN",
    "CM.USUBJID",
    "CM.CMSEQ",
    "CM.CMGRPID",
    "CM.CMSPID",
    "EC.STUDYID",
    "EC.DOMAIN",
    "EC.USUBJID",
    "EC.ECSEQ",
    "EC.ECGRPID",
    "EC.ECREFID",
    "EC.ECSPID",
    "EC.ECLNKID",
    "EC.ECLNKGRP",
    "EX.STUDYID",
    "EX.DOMAIN",
    "EX.USUBJID",
    "EX.EXSEQ",
    "EX.EXGRPID",
    "EX.EXREFID",
    "EX.EXSPID",
    "EX.EXLNKID",
    "EX.EXLNKGRP",
    "ML.STUDYID",
    "ML.DOMAIN",
    "ML.USUBJID",
    "ML.MLSEQ",
    "ML.MLGRPID",
    "ML.MLSPID",
    "PR.STUDYID",
    "PR.DOMAIN",
    "PR.USUBJID",
    "PR.PRSEQ",
    "PR.PRGRPID",
    "PR.PRSPID",
    "PR.PRLNKID",
    "PR.PRLNKGRP",
    "SU.STUDYID",
    "SU.DOMAIN",
    "SU.USUBJID",
    "SU.SUSEQ",
    "SU.SUGRPID",
    "SU.SUSPID",
    "AE.STUDYID",
    "AE.DOMAIN",
    "AE.USUBJID",
    "AE.SPDEVID",
    "AE.AESEQ",
    "AE.AEGRPID",
    "AE.AEREFID",
    "AE.AESPID",
    "BE.STUDYID",
    "BE.DOMAIN",
    "BE.USUBJID",
    "BE.SPDEVID",
    "BE.BESEQ",
    "BE.BEGRPID",
    "BE.BEREFID",
    "BE.BESPID",
    "CE.STUDYID",
    "CE.DOMAIN",
    "CE.USUBJID",
    "CE.CESEQ",
    "CE.CEGRPID",
    "CE.CEREFID",
    "CE.CESPID",
    "DS.STUDYID",
    "DS.DOMAIN",
    "DS.USUBJID",
    "DS.DSSEQ",
    "DS.DSGRPID",
    "DS.DSREFID",
    "DS.DSSPID",
    "DV.STUDYID",
    "DV.DOMAIN",
    "DV.USUBJID",
    "DV.DVSEQ",
    "DV.DVREFID",
    "DV.DVSPID",
    "HO.STUDYID",
    "HO.DOMAIN",
    "HO.USUBJID",
    "HO.HOSEQ",
    "HO.HOGRPID",
    "HO.HOREFID",
    "HO.HOSPID",
    "MH.STUDYID",
    "MH.DOMAIN",
    "MH.USUBJID",
    "MH.MHSEQ",
    "MH.MHGRPID",
    "MH.MHREFID",
    "MH.MHSPID",
    "BS.STUDYID",
    "BS.DOMAIN",
    "BS.USUBJID",
    "BS.SPDEVID",
    "BS.BSSEQ",
    "BS.BSGRPID",
    "BS.BSREFID",
    "BS.BSSPID",
    "CP.STUDYID",
    "CP.DOMAIN",
    "CP.USUBJID",
    "CP.CPSEQ",
    "CP.CPGRPID",
    "CP.CPREFID",
    "CP.CPSPID",
    "CP.CPLNKID",
    "CP.CPLNKGRP",
    "CV.STUDYID",
    "CV.DOMAIN",
    "CV.USUBJID",
    "CV.CVSEQ",
    "CV.CVGRPID",
    "CV.CVREFID",
    "CV.CVSPID",
    "CV.CVLNKID",
    "CV.CVLNKGRP",
    "DA.STUDYID",
    "DA.DOMAIN",
    "DA.USUBJID",
    "DA.DASEQ",
    "DA.DAGRPID",
    "DA.DAREFID",
    "DA.DASPID",
    "DA.DALNKID",
    "DA.DALNKGRP",
    "DD.STUDYID",
    "DD.DOMAIN",
    "DD.USUBJID",
    "DD.DDSEQ",
    "EG.STUDYID",
    "EG.DOMAIN",
    "EG.USUBJID",
    "EG.SPDEVID",
    "EG.EGSEQ",
    "EG.EGGRPID",
    "EG.EGREFID",
    "EG.EGSPID",
    "EG.EGBEATNO",
    "FT.STUDYID",
    "FT.DOMAIN",
    "FT.USUBJID",
    "FT.FTSEQ",
    "FT.FTGRPID",
    "FT.FTREFID",
    "FT.FTSPID",
    "GF.STUDYID",
    "GF.DOMAIN",
    "GF.USUBJID",
    "GF.SPDEVID",
    "GF.NHOID",
    "GF.GFSEQ",
    "GF.GFGRPID",
    "GF.GFREFID",
    "GF.GFSPID",
    "GF.GFLNKID",
    "GF.GFLNKGRP",
    "IE.STUDYID",
    "IE.DOMAIN",
    "IE.USUBJID",
    "IE.IESEQ",
    "IE.IESPID",
    "IS.STUDYID",
    "IS.DOMAIN",
    "IS.USUBJID",
    "IS.NHOID",
    "IS.ISSEQ",
    "IS.ISGRPID",
    "IS.ISREFID",
    "IS.ISSPID",
    "LB.STUDYID",
    "LB.DOMAIN",
    "LB.USUBJID",
    "LB.LBSEQ",
    "LB.LBGRPID",
    "LB.LBREFID",
    "LB.LBSPID",
    "MB.STUDYID",
    "MB.DOMAIN",
    "MB.USUBJID",
    "MB.FOCID",
    "MB.MBSEQ",
    "MB.MBGRPID",
    "MB.MBREFID",
    "MB.MBSPID",
    "MB.MBLNKID",
    "MB.MBLNKGRP",
    "MI.STUDYID",
    "MI.DOMAIN",
    "MI.USUBJID",
    "MI.MISEQ",
    "MI.MIGRPID",
    "MI.MIREFID",
    "MI.MISPID",
    "MK.STUDYID",
    "MK.DOMAIN",
    "MK.USUBJID",
    "MK.MKSEQ",
    "MK.MKGRPID",
    "MK.MKREFID",
    "MK.MKSPID",
    "MK.MKLNKID",
    "MK.MKLNKGRP",
    "MS.STUDYID",
    "MS.DOMAIN",
    "MS.USUBJID",
    "MS.NHOID",
    "MS.MSSEQ",
    "MS.MSGRPID",
    "MS.MSREFID",
    "MS.MSSPID",
    "MS.MSLNKID",
    "NV.STUDYID",
    "NV.DOMAIN",
    "NV.USUBJID",
    "NV.FOCID",
    "NV.NVSEQ",
    "NV.NVGRPID",
    "NV.NVREFID",
    "NV.NVSPID",
    "NV.NVLNKID",
    "NV.NVLNKGRP",
    "OE.STUDYID",
    "OE.DOMAIN",
    "OE.USUBJID",
    "OE.FOCID",
    "OE.OESEQ",
    "OE.OEGRPID",
    "OE.OELNKID",
    "OE.OELNKGRP",
    "PC.STUDYID",
    "PC.DOMAIN",
    "PC.USUBJID",
    "PC.PCSEQ",
    "PC.PCGRPID",
    "PC.PCREFID",
    "PC.PCSPID",
    "PE.STUDYID",
    "PE.DOMAIN",
    "PE.USUBJID",
    "PE.PESEQ",
    "PE.PEGRPID",
    "PE.PESPID",
    "PP.STUDYID",
    "PP.DOMAIN",
    "PP.USUBJID",
    "PP.PPSEQ",
    "PP.PPGRPID",
    "QS.STUDYID",
    "QS.DOMAIN",
    "QS.USUBJID",
    "QS.QSSEQ",
    "QS.QSGRPID",
    "QS.QSSPID",
    "RE.STUDYID",
    "RE.DOMAIN",
    "RE.USUBJID",
    "RE.SPDEVID",
    "RE.RESEQ",
    "RE.REGRPID",
    "RE.REREFID",
    "RE.RESPID",
    "RE.RELNKID",
    "RE.RELNKGRP",
    "RP.STUDYID",
    "RP.DOMAIN",
    "RP.USUBJID",
    "RP.RPSEQ",
    "RP.RPGRPID",
    "RP.RPREFID",
    "RP.RPSPID",
    "RP.RPLNKID",
    "RP.RPLNKGRP",
    "RS.STUDYID",
    "RS.DOMAIN",
    "RS.USUBJID",
    "RS.RSSEQ",
    "RS.RSGRPID",
    "RS.RSREFID",
    "RS.RSSPID",
    "RS.RSLNKID",
    "RS.RSLNKGRP",
    "SC.STUDYID",
    "SC.DOMAIN",
    "SC.USUBJID",
    "SC.SCSEQ",
    "SC.SCGRPID",
    "SC.SCSPID",
    "SS.STUDYID",
    "SS.DOMAIN",
    "SS.USUBJID",
    "SS.SSSEQ",
    "SS.SSGRPID",
    "SS.SSSPID",
    "TR.STUDYID",
    "TR.DOMAIN",
    "TR.USUBJID",
    "TR.TRSEQ",
    "TR.TRGRPID",
    "TR.TRREFID",
    "TR.TRSPID",
    "TR.TRLNKID",
    "TR.TRLNKGRP",
    "TU.STUDYID",
    "TU.DOMAIN",
    "TU.USUBJID",
    "TU.TUSEQ",
    "TU.TUGRPID",
    "TU.TUREFID",
    "TU.TUSPID",
    "TU.TULNKID",
    "TU.TULNKGRP",
    "UR.STUDYID",
    "UR.DOMAIN",
    "UR.USUBJID",
    "UR.URSEQ",
    "UR.URGRPID",
    "UR.URREFID",
    "UR.URSPID",
    "UR.URLNKID",
    "UR.URLNKGRP",
    "VS.STUDYID",
    "VS.DOMAIN",
    "VS.USUBJID",
    "VS.VSSEQ",
    "VS.VSGRPID",
    "VS.VSSPID",
    "FA.STUDYID",
    "FA.DOMAIN",
    "FA.USUBJID",
    "FA.FASEQ",
    "FA.FAGRPID",
    "FA.FASPID",
    "SR.STUDYID",
    "SR.DOMAIN",
    "SR.USUBJID",
    "SR.SRSEQ",
    "SR.SRGRPID",
    "SR.SRREFID",
    "SR.SRSPID",
    "CO.STUDYID",
    "CO.DOMAIN",
    "CO.USUBJID",
    "CO.COSEQ",
    "DM.STUDYID",
    "DM.DOMAIN",
    "DM.USUBJID",
    "SE.STUDYID",
    "SE.DOMAIN",
    "SE.USUBJID",
    "SE.SESEQ",
    "SM.STUDYID",
    "SM.DOMAIN",
    "SM.USUBJID",
    "SM.SMSEQ",
    "SV.STUDYID",
    "SV.DOMAIN",
    "SV.USUBJID",
    "TA.STUDYID",
    "TA.DOMAIN",
    "TD.STUDYID",
    "TD.DOMAIN",
    "TE.STUDYID",
    "TE.DOMAIN",
    "TI.STUDYID",
    "TI.DOMAIN",
    "TM.STUDYID",
    "TM.DOMAIN",
    "TS.STUDYID",
    "TS.DOMAIN",
    "TS.TSSEQ",
    "TS.TSGRPID",
    "TV.STUDYID",
    "TV.DOMAIN",
    "OI.STUDYID",
    "OI.DOMAIN",
    "OI.NHOID",
    "OI.OISEQ",
    "RELREC.STUDYID",
    "RELREC.RDOMAIN",
    "RELREC.USUBJID",
    "RELREC.IDVAR",
    "RELREC.IDVARVAL",
    "RELSPEC.STUDYID",
    "RELSPEC.USUBJID",
    "RELSPEC.REFID",
    "RELSPEC.PARENT",
    "RELSUB.STUDYID",
    "RELSUB.USUBJID",
    "RELSUB.POOLID",
    "RELSUB.RSUBJID",
    "SUPPQUAL.STUDYID",
    "SUPPQUAL.RDOMAIN",
    "SUPPQUAL.USUBJID",
    "SUPPQUAL.IDVAR",
    "SUPPQUAL.IDVARVAL"
  ],
  "Topic": [
    "AG.AGTRT",
    "CM.CMTRT",
    "EC.ECTRT",
    "EX.EXTRT",
    "ML.MLTRT",
    "PR.PRTRT",
    "SU.SUTRT",
    "AE.AETERM",
    "BE.BETERM",
    "CE.CETERM",
    "DS.DSTERM",
    "DV.DVTERM",
    "HO.HOTERM",
    "MH.MHTERM",
    "BS.BSTESTCD",
    "CP.CPTESTCD",
    "CV.CVTESTCD",
    "DA.DATESTCD",
    "DD.DDTESTCD",
    "EG.EGTESTCD",
    "FT.FTTESTCD",
    "GF.GFTESTCD",
    "IE.IETESTCD",
    "IS.ISTESTCD",
    "LB.LBTESTCD",
    "MB.MBTESTCD",
    "MI.MITESTCD",
    "MK.MKTESTCD",
    "MS.MSTESTCD",
    "NV.NVTESTCD",
    "OE.OETESTCD",
    "PC.PCTESTCD",
    "PE.PETESTCD",
    "PP.PPTESTCD",
    "QS.QSTESTCD",
    "RE.RETESTCD",
    "RP.RPTESTCD",
    "RS.RSTESTCD",
    "SC.SCTESTCD",
    "SS.SSTESTCD",
    "TR.TRTESTCD",
    "TU.TUTESTCD",
    "UR.URTESTCD",
    "VS.VSTESTCD",
    "FA.FATESTCD",
    "SR.SRTESTCD",
    "CO.COVAL",
    "DM.SUBJID",
    "SE.ETCD",
    "SM.MIDS",
    "SV.VISITNUM",
    "TA.ARMCD",
    "TE.ETCD",
    "TI.IETESTCD",
    "TM.MIDSTYPE",
    "TS.TSPARMCD",
    "TV.VISITNUM",
    "OI.OIPARMCD",
    "SUPPQUAL.QNAM"
  ],
  "Synonym Qualifier": [
    "AG.AGMODIFY",
    "AG.AGDECOD",
    "CM.CMMODIFY",
    "CM.CMDECOD",
    "PR.PRDECOD",
    "SU.SUMODIFY",
    "SU.SUDECOD",
    "AE.AEMODIFY",
    "AE.AEDECOD",
    "BE.BEMODIFY",
    "BE.BEDECOD",
    "CE.CEDECOD",
    "DS.DSDECOD",
    "DV.DVDECOD",
    "HO.HODECOD",
    "MH.MHMODIFY",
    "MH.MHDECOD",
    "BS.BSTEST",
    "CP.CPTEST",
    "CP.CPLOINC",
    "CV.CVTEST",
    "DA.DATEST",
    "DD.DDTEST",
    "EG.EGTEST",
    "FT.FTTEST",
    "GF.GFTEST",
    "IE.IETEST",
    "IS.ISTEST",
    "LB.LBTEST",
    "LB.LBLOINC",
    "MB.MBTEST",
    "MB.MBLOINC",
    "MI.MITEST",
    "MK.MKTEST",
    "MS.MSTEST",
    "MS.MSLOINC",
    "NV.NVTEST",
    "OE.OETEST",
    "PC.PCTEST",
    "PE.PETEST",
    "PE.PEMODIFY",
    "PP.PPTEST",
    "QS.QSTEST",
    "RE.RETEST",
    "RP.RPTEST",
    "RS.RSTEST",
    "SC.SCTEST",
    "SS.SSTEST",
    "TR.TRTEST",
    "TU.TUTEST",
    "UR.URTEST",
    "VS.VSTEST",
    "FA.FATEST",
    "SR.SRTEST",
    "DM.INVNAM",
    "DM.ARM",
    "DM.ACTARM",
    "SE.ELEMENT",
    "SE.SEUPDES",
    "SV.VISIT",
    "TA.ARM",
    "TA.ELEMENT",
    "TE.ELEMENT",
    "TI.IETEST",
    "TS.TSPARM",
    "TV.VISIT",
    "TV.ARM",
    "OI.OIPARM",
    "SUPPQUAL.QLABEL"
  ],
  "Grouping Qualifier": [
    "AG.AGCAT",
    "AG.AGSCAT",
    "CM.CMCAT",
    "CM.CMSCAT",
    "EC.ECCAT",
    "EC.ECSCAT",
    "EX.EXCAT",
    "EX.EXSCAT",
    "ML.MLCAT",
    "ML.MLSCAT",
    "PR.PRCAT",
    "PR.PRSCAT",
    "SU.SUCAT",
    "SU.SUSCAT",
    "AE.AECAT",
    "AE.AESCAT",
    "BE.BECAT",
    "BE.BESCAT",
    "CE.CECAT",
    "CE.CESCAT",
    "DS.DSCAT",
    "DS.DSSCAT",
    "DV.DVCAT",
    "DV.DVSCAT",
    "HO.HOCAT",
    "HO.HOSCAT",
    "MH.MHCAT",
    "MH.MHSCAT",
    "BS.BSCAT",
    "BS.BSSCAT",
    "CP.CPCAT",
    "CP.CPSCAT",
    "CP.CPTSTPNL",
    "CV.CVCAT",
    "CV.CVSCAT",
    "DA.DACAT",
    "DA.DASCAT",
    "EG.EGCAT",
    "EG.EGSCAT",
    "FT.FTCAT",
    "FT.FTSCAT",
    "GF.GFCAT",
    "GF.GFSCAT",
    "IE.IECAT",
    "IE.IESCAT",
    "IS.ISCAT",
    "IS.ISSCAT",
    "LB.LBCAT",
    "LB.LBSCAT",
    "MB.MBCAT",
    "MB.MBSCAT",
    "MI.MICAT",
    "MI.MISCAT",
    "MK.MKCAT",
    "MK.MKSCAT",
    "MS.MSCAT",
    "MS.MSSCAT",
    "NV.NVCAT",
    "NV.NVSCAT",
    "OE.OECAT",
    "OE.OESCAT",
    "PC.PCCAT",
    "PC.PCSCAT",
    "PE.PECAT",
    "PE.PESCAT",
    "PP.PPCAT",
    "PP.PPSCAT",
    "QS.QSCAT",
    "QS.QSSCAT",
    "RE.RECAT",
    "RE.RESCAT",
    "RP.RPCAT",
    "RP.RPSCAT",
    "RS.RSCAT",
    "RS.RSSCAT",
    "SC.SCCAT",
    "SC.SCSCAT",
    "SS.SSCAT",
    "SS.SSSCAT",
    "UR.URCAT",
    "UR.URSCAT",
    "VS.VSCAT",
    "VS.VSSCAT",
    "FA.FACAT",
    "FA.FASCAT",
    "SR.SRCAT",
    "SR.SRSCAT",
    "TI.IECAT",
    "TI.IESCAT"
  ],
  "Variable Qualifier": [
    "AG.AGPRESP",
    "AG.AGCLAS",
    "AG.AGCLASCD",
    "AG.AGDOSU",
    "AG.AGDOSFRM",
    "AG.AGROUTE",
    "CM.CMPRESP",
    "CM.CMCLAS",
    "CM.CMCLASCD",
    "CM.CMDOSU",
    "CM.CMDOSFRM",
    "CM.CMROUTE",
    "EC.ECPRESP",
    "EC.ECDOSU",
    "EC.ECDOSFRM",
    "EC.ECROUTE",
    "EC.ECLAT",
    "EC.ECDIR",
    "EC.ECPORTOT",
    "EC.ECPSTRGU",
    "EX.EXDOSU",
    "EX.EXDOSFRM",
    "EX.EXROUTE",
    "EX.EXLAT",
    "EX.EXDIR",
    "ML.MLPRESP",
    "ML.MLDOSU",
    "ML.MLDOSFRM",
    "PR.PRPRESP",
    "PR.PRDOSU",
    "PR.PRDOSFRM",
    "PR.PRROUTE",
    "PR.PRLAT",
    "PR.PRDIR",
    "PR.PRPORTOT",
    "SU.SUPRESP",
    "SU.SUCLAS",
    "SU.SUCLASCD",
    "SU.SUDOSU",
    "SU.SUDOSFRM",
    "SU.SUDOSFRQ",
    "SU.SUROUTE",
    "AE.AELLT",
    "AE.AELLTCD",
    "AE.AEPTCD",
    "AE.AEHLT",
    "AE.AEHLTCD",
    "AE.AEHLGT",
    "AE.AEHLGTCD",
    "AE.AEPRESP",
    "AE.AEBDSYCD",
    "AE.AESOC",
    "AE.AESOCCD",
    "CE.CEPRESP",
    "HO.HOPRESP",
    "MH.MHEVDTYP",
    "MH.MHPRESP",
    "BS.BSORRESU",
    "BS.BSSTRESU",
    "BS.BSANTREG",
    "CP.CPSBMRKS",
    "CP.CPCELSTA",
    "CP.CPCSMRKS",
    "CP.CPTSTCND",
    "CP.CPORRESU",
    "CP.CPORNRLO",
    "CP.CPORNRHI",
    "CP.CPSTRESU",
    "CP.CPSTNRLO",
    "CP.CPSTNRHI",
    "CP.CPNRIND",
    "CV.CVORRESU",
    "CV.CVSTRESU",
    "CV.CVLAT",
    "CV.CVDIR",
    "CV.CVEVALID",
    "DA.DAORRESU",
    "DA.DASTRESU",
    "DD.DDRESCAT",
    "EG.EGORRESU",
    "EG.EGSTRESU",
    "EG.EGEVALID",
    "FT.FTORRESU",
    "FT.FTSTRESU",
    "GF.GFTSTDTL",
    "GF.GFORRESU",
    "GF.GFORREF",
    "GF.GFSTRESU",
    "GF.GFSTREFC",
    "GF.GFSTREFN",
    "GF.GFRESCAT",
    "GF.GFINHERT",
    "GF.GFGENREF",
    "GF.GFCHROM",
    "GF.GFSYM",
    "GF.GFSYMTYP",
    "GF.GFGENLOC",
    "GF.GFGENSR",
    "GF.GFSEQID",
    "GF.GFPVRID",
    "GF.GFCOPYID",
    "GF.GFLLOQ",
    "IS.ISTSTCND",
    "IS.ISBDAGNT",
    "IS.ISTSTOPO",
    "IS.ISMSCBCE",
    "IS.ISTSTDTL",
    "IS.ISORRESU",
    "IS.ISORNRLO",
    "IS.ISORNRHI",
    "IS.ISSTRESU",
    "IS.ISSTNRLO",
    "IS.ISSTNRHI",
    "IS.ISSTNRC",
    "IS.ISNRIND",
    "IS.ISLLOQ",
    "LB.LBTSTCND",
    "LB.LBBDAGNT",
    "LB.LBTSTOPO",
    "LB.LBORRESU",
    "LB.LBORNRLO",
    "LB.LBORNRHI",
    "LB.LBLLOD",
    "LB.LBSTRESU",
    "LB.LBSTNRLO",
    "LB.LBSTNRHI",
    "LB.LBSTNRC",
    "LB.LBNRIND",
    "LB.LBTOX",
    "MB.MBTSTDTL",
    "MB.MBORRESU",
    "MB.MBSTRESU",
    "MB.MBRESCAT",
    "MB.MBLAT",
    "MB.MBDIR",
    "MI.MIORRESU",
    "MI.MISTRESU",
    "MI.MIRESCAT",
    "MI.MILAT",
    "MI.MIDIR",
    "MK.MKORRESU",
    "MK.MKSTRESU",
    "MK.MKLAT",
    "MK.MKDIR",
    "MK.MKEVALID",
    "MS.MSAGENT",
    "MS.MSCONC",
    "MS.MSCONCU",
    "MS.MSTSTDTL",
    "MS.MSORRESU",
    "MS.MSSTRESU",
    "MS.MSNRIND",
    "MS.MSRESCAT",
    "MS.MSLAT",
    "MS.MSDIR",
    "MS.MSEVALID",
    "MS.MSLLOQ",
    "MS.MSULOQ",
    "NV.NVORRESU",
    "NV.NVSTRESU",
    "NV.NVLAT",
    "NV.NVDIR",
    "NV.NVEVALID",
    "OE.OETSTDTL",
    "OE.OEORRESU",
    "OE.OEORNRLO",
    "OE.OEORNRHI",
    "OE.OESTRESU",
    "OE.OESTNRLO",
    "OE.OESTNRHI",
    "OE.OESTNRC",
    "OE.OENRIND",
    "OE.OERESCAT",
    "OE.OELAT",
    "OE.OEDIR",
    "OE.OEPORTOT",
    "OE.OEEVALID",
    "PC.PCORRESU",
    "PC.PCSTRESU",
    "PC.PCLLOQ",
    "PC.PCULOQ",
    "PE.PEORRESU",
    "PE.PELAT",
    "PP.PPORRESU",
    "PP.PPSTRESU",
    "QS.QSORRESU",
    "QS.QSSTRESU",
    "RE.REORRESU",
    "RE.REORREF",
    "RE.RESTRESU",
    "RE.RESTREFC",
    "RE.RESTREFN",
    "RE.RELAT",
    "RE.REDIR",
    "RE.REEVALID",
    "RP.RPORRESU",
    "RP.RPSTRESU",
    "RS.RSORRESU",
    "RS.RSSTRESU",
    "RS.RSEVALID",
    "SC.SCORRESU",
    "SC.SCSTRESU",
    "TR.TRORRESU",
    "TR.TRSTRESU",
    "TR.TREVALID",
    "TU.TULAT",
    "TU.TUDIR",
    "TU.TUPORTOT",
    "TU.TUEVALID",
    "UR.URTSTDTL",
    "UR.URORRESU",
    "UR.URSTRESU",
    "UR.URRESCAT",
    "UR.URLAT",
    "UR.URDIR",
    "UR.UREVALID",
    "VS.VSORRESU",
    "VS.VSSTRESU",
    "VS.VSTOX",
    "FA.FAORRESU",
    "FA.FASTRESU",
    "FA.FALAT",
    "SR.SRORRESU",
    "SR.SRSTRESU",
    "SR.SRLAT",
    "DM.AGEU",
    "SV.SVPRESP",
    "TM.TMDEF",
    "RELSPEC.SPEC",
    "RELSPEC.LEVEL"
  ],
  "Record Qualifier": [
    "AG.AGOCCUR",
    "AG.AGSTAT",
    "AG.AGREASND",
    "AG.AGDOSE",
    "AG.AGDOSTXT",
    "AG.AGDOSFRQ",
    "CM.CMOCCUR",
    "CM.CMSTAT",
    "CM.CMREASND",
    "CM.CMINDC",
    "CM.CMDOSE",
    "CM.CMDOSTXT",
    "CM.CMDOSFRQ",
    "CM.CMDOSTOT",
    "CM.CMDOSRGM",
    "CM.CMADJ",
    "CM.CMRSDISC",
    "EC.ECMOOD",
    "EC.ECOCCUR",
    "EC.ECREASOC",
    "EC.ECDOSE",
    "EC.ECDOSTXT",
    "EC.ECDOSFRQ",
    "EC.ECDOSTOT",
    "EC.ECDOSRGM",
    "EC.ECLOT",
    "EC.ECLOC",
    "EC.ECFAST",
    "EC.ECPSTRG",
    "EC.ECADJ",
    "EX.EXDOSE",
    "EX.EXDOSTXT",
    "EX.EXDOSFRQ",
    "EX.EXDOSRGM",
    "EX.EXLOT",
    "EX.EXLOC",
    "EX.EXFAST",
    "EX.EXADJ",
    "ML.MLOCCUR",
    "ML.MLSTAT",
    "ML.MLREASND",
    "ML.MLDOSE",
    "ML.MLDOSTXT",
    "PR.PROCCUR",
    "PR.PRINDC",
    "PR.PRDOSE",
    "PR.PRDOSTXT",
    "PR.PRDOSFRQ",
    "PR.PRDOSRGM",
    "PR.PRLOC",
    "SU.SUOCCUR",
    "SU.SUSTAT",
    "SU.SUREASND",
    "SU.SUDOSE",
    "SU.SUDOSTXT",
    "SU.SUDOSTOT",
    "AE.AEBODSYS",
    "AE.AELOC",
    "AE.AESEV",
    "AE.AESER",
    "AE.AEACN",
    "AE.AEACNOTH",
    "AE.AEACNDEV",
    "AE.AEREL",
    "AE.AERLDEV",
    "AE.AERELNST",
    "AE.AEPATT",
    "AE.AEOUT",
    "AE.AESCAN",
    "AE.AESCONG",
    "AE.AESDISAB",
    "AE.AESDTH",
    "AE.AESHOSP",
    "AE.AESLIFE",
    "AE.AESOD",
    "AE.AESMIE",
    "AE.AESINTV",
    "AE.AEUNANT",
    "AE.AERLPRT",
    "AE.AERLPRC",
    "AE.AECONTRT",
    "AE.AETOXGR",
    "BE.BELOC",
    "BE.BEPARTY",
    "BE.BEPRTYID",
    "CE.CEOCCUR",
    "CE.CESTAT",
    "CE.CEREASND",
    "CE.CEBODSYS",
    "CE.CESEV",
    "CE.CETOXGR",
    "HO.HOOCCUR",
    "HO.HOSTAT",
    "HO.HOREASND",
    "MH.MHOCCUR",
    "MH.MHSTAT",
    "MH.MHREASND",
    "MH.MHBODSYS",
    "BS.BSSTAT",
    "BS.BSREASND",
    "BS.BSNAM",
    "BS.BSSPEC",
    "BS.BSSPCCND",
    "BS.BSMETHOD",
    "BS.BSBLFL",
    "CP.CPCNDAGT",
    "CP.CPBDAGNT",
    "CP.CPABCLID",
    "CP.CPMRKSTR",
    "CP.CPGATE",
    "CP.CPGATDEF",
    "CP.CPSPTSTD",
    "CP.CPRESSCL",
    "CP.CPRESTYP",
    "CP.CPCOLSRT",
    "CP.CPSTAT",
    "CP.CPREASND",
    "CP.CPNAM",
    "CP.CPSPEC",
    "CP.CPSPCCND",
    "CP.CPMETHOD",
    "CP.CPANMETH",
    "CP.CPLOBXFL",
    "CP.CPBLFL",
    "CP.CPDRVFL",
    "CP.CPCLSIG",
    "CV.CVPOS",
    "CV.CVSTAT",
    "CV.CVREASND",
    "CV.CVLOC",
    "CV.CVMETHOD",
    "CV.CVLOBXFL",
    "CV.CVBLFL",
    "CV.CVDRVFL",
    "CV.CVEVAL",
    "DA.DASTAT",
    "DA.DAREASND",
    "DD.DDEVAL",
    "EG.EGPOS",
    "EG.EGSTAT",
    "EG.EGREASND",
    "EG.EGXFN",
    "EG.EGNAM",
    "EG.EGMETHOD",
    "EG.EGLEAD",
    "EG.EGLOBXFL",
    "EG.EGBLFL",
    "EG.EGDRVFL",
    "EG.EGEVAL",
    "EG.EGCLSIG",
    "EG.EGREPNUM",
    "FT.FTPOS",
    "FT.FTSTAT",
    "FT.FTREASND",
    "FT.FTXFN",
    "FT.FTNAM",
    "FT.FTMETHOD",
    "FT.FTLOBXFL",
    "FT.FTBLFL",
    "FT.FTDRVFL",
    "FT.FTREPNUM",
    "GF.GFSTAT",
    "GF.GFREASND",
    "GF.GFXFN",
    "GF.GFNAM",
    "GF.GFSPEC",
    "GF.GFMETHOD",
    "GF.GFRUNID",
    "GF.GFANMETH",
    "GF.GFBLFL",
    "GF.GFDRVFL",
    "GF.GFREPNUM",
    "IS.ISCNDAGT",
    "IS.ISSTAT",
    "IS.ISREASND",
    "IS.ISNAM",
    "IS.ISSPEC",
    "IS.ISSPCCND",
    "IS.ISSPCUFL",
    "IS.ISMETHOD",
    "IS.ISLOBXFL",
    "IS.ISBLFL",
    "IS.ISDRVFL",
    "LB.LBRESSCL",
    "LB.LBRESTYP",
    "LB.LBCOLSRT",
    "LB.LBSTAT",
    "LB.LBREASND",
    "LB.LBNAM",
    "LB.LBSPEC",
    "LB.LBSPCCND",
    "LB.LBSPCUFL",
    "LB.LBMETHOD",
    "LB.LBANMETH",
    "LB.LBTMTHSN",
    "LB.LBLOBXFL",
    "LB.LBBLFL",
    "LB.LBFAST",
    "LB.LBDRVFL",
    "LB.LBTOXGR",
    "LB.LBCLSIG",
    "MB.MBSTAT",
    "MB.MBREASND",
    "MB.MBNAM",
    "MB.MBSPEC",
    "MB.MBSPCCND",
    "MB.MBLOC",
    "MB.MBMETHOD",
    "MB.MBLOBXFL",
    "MB.MBBLFL",
    "MB.MBFAST",
    "MB.MBDRVFL",
    "MI.MITSTDTL",
    "MI.MISTAT",
    "MI.MIREASND",
    "MI.MINAM",
    "MI.MISPEC",
    "MI.MISPCCND",
    "MI.MILOC",
    "MI.MIMETHOD",
    "MI.MILOBXFL",
    "MI.MIBLFL",
    "MI.MIEVAL",
    "MK.MKPOS",
    "MK.MKSTAT",
    "MK.MKREASND",
    "MK.MKLOC",
    "MK.MKMETHOD",
    "MK.MKLOBXFL",
    "MK.MKBLFL",
    "MK.MKDRVFL",
    "MK.MKEVAL",
    "MS.MSSTAT",
    "MS.MSREASND",
    "MS.MSXFN",
    "MS.MSNAM",
    "MS.MSSPEC",
    "MS.MSSPCCND",
    "MS.MSLOC",
    "MS.MSMETHOD",
    "MS.MSANMETH",
    "MS.MSLOBXFL",
    "MS.MSBLFL",
    "MS.MSFAST",
    "MS.MSDRVFL",
    "MS.MSEVAL",
    "MS.MSACPTFL",
    "MS.MSREPNUM",
    "NV.NVSTAT",
    "NV.NVREASND",
    "NV.NVLOC",
    "NV.NVMETHOD",
    "NV.NVLOBXFL",
    "NV.NVBLFL",
    "NV.NVDRVFL",
    "NV.NVEVAL",
    "OE.OESTAT",
    "OE.OEREASND",
    "OE.OEXFN",
    "OE.OELOC",
    "OE.OEMETHOD",
    "OE.OELOBXFL",
    "OE.OEBLFL",
    "OE.OEDRVFL",
    "OE.OEEVAL",
    "OE.OEACPTFL",
    "OE.OEREPNUM",
    "PC.PCSTAT",
    "PC.PCREASND",
    "PC.PCNAM",
    "PC.PCSPEC",
    "PC.PCSPCCND",
    "PC.PCMETHOD",
    "PC.PCFAST",
    "PC.PCDRVFL",
    "PE.PEBODSYS",
    "PE.PESTAT",
    "PE.PEREASND",
    "PE.PELOC",
    "PE.PEMETHOD",
    "PE.PELOBXFL",
    "PE.PEBLFL",
    "PE.PEEVAL",
    "PP.PPSTAT",
    "PP.PPREASND",
    "PP.PPSPEC",
    "PP.PPANMETH",
    "QS.QSSTAT",
    "QS.QSREASND",
    "QS.QSMETHOD",
    "QS.QSLOBXFL",
    "QS.QSBLFL",
    "QS.QSDRVFL",
    "RE.REPOS",
    "RE.RESTAT",
    "RE.REREASND",
    "RE.RELOC",
    "RE.REMETHOD",
    "RE.RELOBXFL",
    "RE.REBLFL",
    "RE.REDRVFL",
    "RE.REEVAL",
    "RE.REREPNUM",
    "RP.RPSTAT",
    "RP.RPREASND",
    "RP.RPLOBXFL",
    "RP.RPBLFL",
    "RP.RPDRVFL",
    "RS.RSSTAT",
    "RS.RSREASND",
    "RS.RSNAM",
    "RS.RSMETHOD",
    "RS.RSLOBXFL",
    "RS.RSBLFL",
    "RS.RSDRVFL",
    "RS.RSEVAL",
    "RS.RSACPTFL",
    "SC.SCSTAT",
    "SC.SCREASND",
    "SS.SSSTAT",
    "SS.SSREASND",
    "SS.SSEVAL",
    "TR.TRSTAT",
    "TR.TRREASND",
    "TR.TRNAM",
    "TR.TRMETHOD",
    "TR.TRLOBXFL",
    "TR.TRBLFL",
    "TR.TREVAL",
    "TR.TRACPTFL",
    "TU.TUNAM",
    "TU.TULOC",
    "TU.TUMETHOD",
    "TU.TULOBXFL",
    "TU.TUBLFL",
    "TU.TUEVAL",
    "TU.TUACPTFL",
    "UR.URSTAT",
    "UR.URREASND",
    "UR.URLOC",
    "UR.URMETHOD",
    "UR.URLOBXFL",
    "UR.URBLFL",
    "UR.URDRVFL",
    "UR.UREVAL",
    "VS.VSPOS",
    "VS.VSSTAT",
    "VS.VSREASND",
    "VS.VSLOC",
    "VS.VSLOBXFL",
    "VS.VSBLFL",
    "VS.VSDRVFL",
    "VS.VSTOXGR",
    "VS.VSCLSIG",
    "FA.FAOBJ",
    "FA.FASTAT",
    "FA.FAREASND",
    "FA.FALOC",
    "FA.FALOBXFL",
    "FA.FABLFL",
    "FA.FAEVAL",
    "SR.SROBJ",
    "SR.SRSTAT",
    "SR.SRREASND",
    "SR.SRNAM",
    "SR.SRSPEC",
    "SR.SRLOC",
    "SR.SRMETHOD",
    "SR.SRLOBXFL",
    "SR.SRBLFL",
    "SR.SREVAL",
    "CO.RDOMAIN",
    "CO.IDVAR",
    "CO.IDVARVAL",
    "CO.COREF",
    "CO.COEVAL",
    "CO.COEVALID",
    "DM.RFSTDTC",
    "DM.RFENDTC",
    "DM.RFXSTDTC",
    "DM.RFXENDTC",
    "DM.RFCSTDTC",
    "DM.RFCENDTC",
    "DM.RFICDTC",
    "DM.RFPENDTC",
    "DM.DTHDTC",
    "DM.DTHFL",
    "DM.SITEID",
    "DM.INVID",
    "DM.BRTHDTC",
    "DM.AGE",
    "DM.SEX",
    "DM.RACE",
    "DM.ETHNIC",
    "DM.ARMCD",
    "DM.ACTARMCD",
    "DM.ARMNRS",
    "DM.ACTARMUD",
    "DM.COUNTRY",
    "SM.MIDSTYPE",
    "SV.SVOCCUR",
    "SV.SVREASOC",
    "SV.SVCNTMOD",
    "SV.SVEPCHGI",
    "SV.SVUPDES",
    "TA.ETCD",
    "TD.TDNUMRPT",
    "TI.TIVERS",
    "TM.TMRPT",
    "TV.ARMCD",
    "RELREC.RELTYPE",
    "RELREC.RELID",
    "RELSUB.SREL",
    "SUPPQUAL.QORIG",
    "SUPPQUAL.QEVAL"
  ],
  "Timing": [
    "AG.VISITNUM",
    "AG.VISIT",
    "AG.VISITDY",
    "AG.TAETORD",
    "AG.EPOCH",
    "AG.AGSTDTC",
    "AG.AGENDTC",
    "AG.AGSTDY",
    "AG.AGENDY",
    "AG.AGDUR",
    "AG.AGSTRF",
    "AG.AGENRF",
    "AG.AGSTRTPT",
    "AG.AGSTTPT",
    "AG.AGENRTPT",
    "AG.AGENTPT",
    "CM.TAETORD",
    "CM.EPOCH",
    "CM.CMSTDTC",
    "CM.CMENDTC",
    "CM.CMSTDY",
    "CM.CMENDY",
    "CM.CMDUR",
    "CM.CMSTRF",
    "CM.CMENRF",
    "CM.CMSTRTPT",
    "CM.CMSTTPT",
    "CM.CMENRTPT",
    "CM.CMENTPT",
    "EC.TAETORD",
    "EC.EPOCH",
    "EC.ECSTDTC",
    "EC.ECENDTC",
    "EC.ECSTDY",
    "EC.ECENDY",
    "EC.ECDUR",
    "EC.ECTPT",
    "EC.ECTPTNUM",
    "EC.ECELTM",
    "EC.ECTPTREF",
    "EC.ECRFTDTC",
    "EX.TAETORD",
    "EX.EPOCH",
    "EX.EXSTDTC",
    "EX.EXENDTC",
    "EX.EXSTDY",
    "EX.EXENDY",
    "EX.EXDUR",
    "EX.EXTPT",
    "EX.EXTPTNUM",
    "EX.EXELTM",
    "EX.EXTPTREF",
    "EX.EXRFTDTC",
    "ML.VISITNUM",
    "ML.VISIT",
    "ML.VISITDY",
    "ML.TAETORD",
    "ML.EPOCH",
    "ML.MLDTC",
    "ML.MLSTDTC",
    "ML.MLENDTC",
    "ML.MLDY",
    "ML.MLSTDY",
    "ML.MLENDY",
    "ML.MLDUR",
    "ML.MLTPT",
    "ML.MLTPTNUM",
    "ML.MLELTM",
    "ML.MLTPTREF",
    "ML.MLRFTDTC",
    "ML.MIDS",
    "ML.RELMIDS",
    "ML.MIDSDTC",
    "PR.VISITNUM",
    "PR.VISIT",
    "PR.VISITDY",
    "PR.TAETORD",
    "PR.EPOCH",
    "PR.PRSTDTC",
    "PR.PRENDTC",
    "PR.PRSTDY",
    "PR.PRENDY",
    "PR.PRDUR",
    "PR.PRTPT",
    "PR.PRTPTNUM",
    "PR.PRELTM",
    "PR.PRTPTREF",
    "PR.PRRFTDTC",
    "PR.PRSTRTPT",
    "PR.PRSTTPT",
    "PR.PRENRTPT",
    "PR.PRENTPT",
    "SU.TAETORD",
    "SU.EPOCH",
    "SU.SUSTDTC",
    "SU.SUENDTC",
    "SU.SUSTDY",
    "SU.SUENDY",
    "SU.SUDUR",
    "SU.SUSTRF",
    "SU.SUENRF",
    "SU.SUSTRTPT",
    "SU.SUSTTPT",
    "SU.SUENRTPT",
    "SU.SUENTPT",
    "AE.TAETORD",
    "AE.EPOCH",
    "AE.AESTDTC",
    "AE.AEENDTC",
    "AE.AESTDY",
    "AE.AEENDY",
    "AE.AEDUR",
    "AE.AEENRF",
    "AE.AEENRTPT",
    "AE.AEENTPT",
    "BE.VISITNUM",
    "BE.VISIT",
    "BE.VISITDY",
    "BE.BEDTC",
    "BE.BESTDTC",
    "BE.BEENDTC",
    "BE.BESTDY",
    "BE.BEENDY",
    "BE.BEDUR",
    "CE.TAETORD",
    "CE.EPOCH",
    "CE.CEDTC",
    "CE.CESTDTC",
    "CE.CEENDTC",
    "CE.CEDY",
    "CE.CESTDY",
    "CE.CEENDY",
    "CE.CESTRF",
    "CE.CEENRF",
    "CE.CESTRTPT",
    "CE.CESTTPT",
    "CE.CEENRTPT",
    "CE.CEENTPT",
    "DS.EPOCH",
    "DS.DSDTC",
    "DS.DSSTDTC",
    "DS.DSDY",
    "DS.DSSTDY",
    "DV.TAETORD",
    "DV.EPOCH",
    "DV.DVSTDTC",
    "DV.DVENDTC",
    "DV.DVSTDY",
    "DV.DVENDY",
    "HO.TAETORD",
    "HO.EPOCH",
    "HO.HODTC",
    "HO.HOSTDTC",
    "HO.HOENDTC",
    "HO.HODY",
    "HO.HOSTDY",
    "HO.HOENDY",
    "HO.HODUR",
    "HO.HOSTRTPT",
    "HO.HOSTTPT",
    "HO.HOENRTPT",
    "HO.HOENTPT",
    "MH.TAETORD",
    "MH.EPOCH",
    "MH.MHDTC",
    "MH.MHSTDTC",
    "MH.MHENDTC",
    "MH.MHDY",
    "MH.MHENRF",
    "MH.MHENRTPT",
    "MH.MHENTPT",
    "BS.VISITNUM",
    "BS.VISIT",
    "BS.VISITDY",
    "BS.BSDTC",
    "BS.BSDY",
    "BS.BSTPT",
    "BS.BSTPTNUM",
    "BS.BSELTM",
    "BS.BSTPTREF",
    "BS.BSRFTDTC",
    "CP.VISITNUM",
    "CP.VISIT",
    "CP.VISITDY",
    "CP.TAETORD",
    "CP.EPOCH",
    "CP.CPDTC",
    "CP.CPDY",
    "CP.CPTPT",
    "CP.CPTPTNUM",
    "CP.CPELTM",
    "CP.CPTPTREF",
    "CP.CPRFTDTC",
    "CV.VISITNUM",
    "CV.VISIT",
    "CV.VISITDY",
    "CV.TAETORD",
    "CV.EPOCH",
    "CV.CVDTC",
    "CV.CVDY",
    "CV.CVTPT",
    "CV.CVTPTNUM",
    "CV.CVELTM",
    "CV.CVTPTREF",
    "CV.CVRFTDTC",
    "DA.VISITNUM",
    "DA.VISIT",
    "DA.VISITDY",
    "DA.TAETORD",
    "DA.EPOCH",
    "DA.DADTC",
    "DA.DADY",
    "DD.DDDTC",
    "DD.DDDY",
    "EG.VISITNUM",
    "EG.VISIT",
    "EG.VISITDY",
    "EG.TAETORD",
    "EG.EPOCH",
    "EG.EGDTC",
    "EG.EGDY",
    "EG.EGTPT",
    "EG.EGTPTNUM",
    "EG.EGELTM",
    "EG.EGTPTREF",
    "EG.EGRFTDTC",
    "FT.VISITNUM",
    "FT.VISIT",
    "FT.VISITDY",
    "FT.TAETORD",
    "FT.EPOCH",
    "FT.FTDTC",
    "FT.FTDY",
    "FT.FTTPT",
    "FT.FTTPTNUM",
    "FT.FTELTM",
    "FT.FTTPTREF",
    "FT.FTRFTDTC",
    "GF.VISITNUM",
    "GF.VISIT",
    "GF.VISITDY",
    "GF.GFDTC",
    "GF.GFDY",
    "GF.GFTPT",
    "GF.GFTPTNUM",
    "GF.GFELTM",
    "GF.GFTPTREF",
    "GF.GFRFTDTC",
    "IE.VISITNUM",
    "IE.VISIT",
    "IE.VISITDY",
    "IE.TAETORD",
    "IE.EPOCH",
    "IE.IEDTC",
    "IE.IEDY",
    "IS.VISITNUM",
    "IS.VISIT",
    "IS.VISITDY",
    "IS.TAETORD",
    "IS.EPOCH",
    "IS.ISDTC",
    "IS.ISENDTC",
    "IS.ISDY",
    "IS.ISENDY",
    "IS.ISTPT",
    "IS.ISTPTNUM",
    "IS.ISELTM",
    "IS.ISTPTREF",
    "IS.ISRFTDTC",
    "LB.VISITNUM",
    "LB.VISIT",
    "LB.VISITDY",
    "LB.TAETORD",
    "LB.EPOCH",
    "LB.LBDTC",
    "LB.LBENDTC",
    "LB.LBDY",
    "LB.LBENDY",
    "LB.LBTPT",
    "LB.LBTPTNUM",
    "LB.LBELTM",
    "LB.LBTPTREF",
    "LB.LBRFTDTC",
    "LB.LBPTFL",
    "LB.LBPDUR",
    "MB.VISITNUM",
    "MB.VISIT",
    "MB.VISITDY",
    "MB.TAETORD",
    "MB.EPOCH",
    "MB.MBDTC",
    "MB.MBDY",
    "MB.MBTPT",
    "MB.MBTPTNUM",
    "MB.MBELTM",
    "MB.MBTPTREF",
    "MB.MBRFTDTC",
    "MI.VISITNUM",
    "MI.VISIT",
    "MI.VISITDY",
    "MI.TAETORD",
    "MI.EPOCH",
    "MI.MIDTC",
    "MI.MIDY",
    "MK.VISITNUM",
    "MK.VISIT",
    "MK.VISITDY",
    "MK.TAETORD",
    "MK.EPOCH",
    "MK.MKDTC",
    "MK.MKDY",
    "MK.MKTPT",
    "MK.MKTPTNUM",
    "MK.MKELTM",
    "MK.MKTPTREF",
    "MK.MKRFTDTC",
    "MS.VISITNUM",
    "MS.VISIT",
    "MS.VISITDY",
    "MS.TAETORD",
    "MS.EPOCH",
    "MS.MSDTC",
    "MS.MSDY",
    "MS.MSDUR",
    "MS.MSTPT",
    "MS.MSTPTNUM",
    "MS.MSELTM",
    "MS.MSTPTREF",
    "MS.MSRFTDTC",
    "MS.MSEVLINT",
    "MS.MSEVINTX",
    "NV.VISITNUM",
    "NV.VISIT",
    "NV.VISITDY",
    "NV.TAETORD",
    "NV.EPOCH",
    "NV.NVDTC",
    "NV.NVDY",
    "NV.NVTPT",
    "NV.NVTPTNUM",
    "NV.NVELTM",
    "NV.NVTPTREF",
    "NV.NVRFTDTC",
    "OE.VISITNUM",
    "OE.VISIT",
    "OE.VISITDY",
    "OE.TAETORD",
    "OE.EPOCH",
    "OE.OEDTC",
    "OE.OEDY",
    "OE.OETPT",
    "OE.OETPTNUM",
    "OE.OEELTM",
    "OE.OETPTREF",
    "OE.OERFTDTC",
    "PC.VISITNUM",
    "PC.VISIT",
    "PC.VISITDY",
    "PC.TAETORD",
    "PC.EPOCH",
    "PC.PCDTC",
    "PC.PCENDTC",
    "PC.PCDY",
    "PC.PCENDY",
    "PC.PCTPT",
    "PC.PCTPTNUM",
    "PC.PCELTM",
    "PC.PCTPTREF",
    "PC.PCRFTDTC",
    "PC.PCEVLINT",
    "PE.VISITNUM",
    "PE.VISIT",
    "PE.VISITDY",
    "PE.TAETORD",
    "PE.EPOCH",
    "PE.PEDTC",
    "PE.PEDY",
    "PP.TAETORD",
    "PP.EPOCH",
    "PP.PPDTC",
    "PP.PPDY",
    "PP.PPTPTREF",
    "PP.PPRFTDTC",
    "PP.PPSTINT",
    "PP.PPENINT",
    "QS.VISITNUM",
    "QS.VISIT",
    "QS.VISITDY",
    "QS.TAETORD",
    "QS.EPOCH",
    "QS.QSDTC",
    "QS.QSDY",
    "QS.QSTPT",
    "QS.QSTPTNUM",
    "QS.QSELTM",
    "QS.QSTPTREF",
    "QS.QSRFTDTC",
    "QS.QSEVLINT",
    "QS.QSEVINTX",
    "RE.VISITNUM",
    "RE.VISIT",
    "RE.VISITDY",
    "RE.TAETORD",
    "RE.EPOCH",
    "RE.REDTC",
    "RE.REDY",
    "RE.RETPT",
    "RE.RETPTNUM",
    "RE.REELTM",
    "RE.RETPTREF",
    "RE.RERFTDTC",
    "RP.VISITNUM",
    "RP.VISIT",
    "RP.VISITDY",
    "RP.TAETORD",
    "RP.EPOCH",
    "RP.RPDTC",
    "RP.RPDY",
    "RP.RPDUR",
    "RP.RPTPT",
    "RP.RPTPTNUM",
    "RP.RPELTM",
    "RP.RPTPTREF",
    "RP.RPRFTDTC",
    "RS.VISITNUM",
    "RS.VISIT",
    "RS.VISITDY",
    "RS.TAETORD",
    "RS.EPOCH",
    "RS.RSDTC",
    "RS.RSDY",
    "RS.RSTPT",
    "RS.RSTPTNUM",
    "RS.RSELTM",
    "RS.RSTPTREF",
    "RS.RSRFTDTC",
    "RS.RSEVLINT",
    "RS.RSEVINTX",
    "RS.RSSTRTPT",
    "RS.RSSTTPT",
    "RS.RSENRTPT",
    "RS.RSENTPT",
    "SC.VISITNUM",
    "SC.VISIT",
    "SC.VISITDY",
    "SC.TAETORD",
    "SC.EPOCH",
    "SC.SCDTC",
    "SC.SCDY",
    "SS.VISITNUM",
    "SS.VISIT",
    "SS.VISITDY",
    "SS.TAETORD",
    "SS.EPOCH",
    "SS.SSDTC",
    "SS.SSDY",
    "TR.VISITNUM",
    "TR.VISIT",
    "TR.VISITDY",
    "TR.TAETORD",
    "TR.EPOCH",
    "TR.TRDTC",
    "TR.TRDY",
    "TU.VISITNUM",
    "TU.VISIT",
    "TU.VISITDY",
    "TU.TAETORD",
    "TU.EPOCH",
    "TU.TUDTC",
    "TU.TUDY",
    "UR.VISITNUM",
    "UR.VISIT",
    "UR.VISITDY",
    "UR.TAETORD",
    "UR.EPOCH",
    "UR.URDTC",
    "UR.URDY",
    "UR.URTPT",
    "UR.URTPTNUM",
    "UR.URELTM",
    "UR.URTPTREF",
    "UR.URRFTDTC",
    "VS.VISITNUM",
    "VS.VISIT",
    "VS.VISITDY",
    "VS.TAETORD",
    "VS.EPOCH",
    "VS.VSDTC",
    "VS.VSDY",
    "VS.VSTPT",
    "VS.VSTPTNUM",
    "VS.VSELTM",
    "VS.VSTPTREF",
    "VS.VSRFTDTC",
    "FA.VISITNUM",
    "FA.VISIT",
    "FA.VISITDY",
    "FA.TAETORD",
    "FA.EPOCH",
    "FA.FADTC",
    "FA.FADY",
    "SR.VISITNUM",
    "SR.VISIT",
    "SR.VISITDY",
    "SR.TAETORD",
    "SR.EPOCH",
    "SR.SRDTC",
    "SR.SRDY",
    "SR.SRTPT",
    "SR.SRTPTNUM",
    "SR.SRELTM",
    "SR.SRTPTREF",
    "SR.SRRFTDTC",
    "CO.CODTC",
    "CO.CODY",
    "DM.DMDTC",
    "DM.DMDY",
    "SE.TAETORD",
    "SE.EPOCH",
    "SE.SESTDTC",
    "SE.SEENDTC",
    "SE.SESTDY",
    "SE.SEENDY",
    "SM.SMSTDTC",
    "SM.SMENDTC",
    "SM.SMSTDY",
    "SM.SMENDY",
    "SV.VISITDY",
    "SV.SVSTDTC",
    "SV.SVENDTC",
    "SV.SVSTDY",
    "SV.SVENDY",
    "TA.TAETORD",
    "TA.EPOCH",
    "TD.TDORDER",
    "TD.TDANCVAR",
    "TD.TDSTOFF",
    "TD.TDTGTPAI",
    "TD.TDMINPAI",
    "TD.TDMAXPAI",
    "TE.TEDUR",
    "TV.VISITDY"
  ],
  "Result Qualifier": [
    "BS.BSORRES",
    "BS.BSSTRESC",
    "BS.BSSTRESN",
    "CP.CPORRES",
    "CP.CPSTRESC",
    "CP.CPSTRESN",
    "CV.CVORRES",
    "CV.CVSTRESC",
    "CV.CVSTRESN",
    "DA.DAORRES",
    "DA.DASTRESC",
    "DA.DASTRESN",
    "DD.DDORRES",
    "DD.DDSTRESC",
    "EG.EGORRES",
    "EG.EGSTRESC",
    "EG.EGSTRESN",
    "FT.FTORRES",
    "FT.FTSTRESC",
    "FT.FTSTRESN",
    "GF.GFORRES",
    "GF.GFSTRESC",
    "GF.GFSTRESN",
    "IE.IEORRES",
    "IE.IESTRESC",
    "IS.ISORRES",
    "IS.ISSTRESC",
    "IS.ISSTRESN",
    "LB.LBORRES",
    "LB.LBSTRESC",
    "LB.LBSTRESN",
    "MB.MBORRES",
    "MB.MBSTRESC",
    "MB.MBSTRESN",
    "MI.MIORRES",
    "MI.MISTRESC",
    "MI.MISTRESN",
    "MK.MKORRES",
    "MK.MKSTRESC",
    "MK.MKSTRESN",
    "MS.MSORRES",
    "MS.MSSTRESC",
    "MS.MSSTRESN",
    "NV.NVORRES",
    "NV.NVSTRESC",
    "NV.NVSTRESN",
    "OE.OEORRES",
    "OE.OESTRESC",
    "OE.OESTRESN",
    "PC.PCORRES",
    "PC.PCSTRESC",
    "PC.PCSTRESN",
    "PE.PEORRES",
    "PE.PESTRESC",
    "PP.PPORRES",
    "PP.PPSTRESC",
    "PP.PPSTRESN",
    "QS.QSORRES",
    "QS.QSSTRESC",
    "QS.QSSTRESN",
    "RE.REORRES",
    "RE.RESTRESC",
    "RE.RESTRESN",
    "RP.RPORRES",
    "RP.RPSTRESC",
    "RP.RPSTRESN",
    "RS.RSORRES",
    "RS.RSSTRESC",
    "RS.RSSTRESN",
    "SC.SCORRES",
    "SC.SCSTRESC",
    "SC.SCSTRESN",
    "SS.SSORRES",
    "SS.SSSTRESC",
    "TR.TRORRES",
    "TR.TRSTRESC",
    "TR.TRSTRESN",
    "TU.TUORRES",
    "TU.TUSTRESC",
    "UR.URORRES",
    "UR.URSTRESC",
    "UR.URSTRESN",
    "VS.VSORRES",
    "VS.VSSTRESC",
    "VS.VSSTRESN",
    "VS.VSLAT",
    "FA.FAORRES",
    "FA.FASTRESC",
    "FA.FASTRESN",
    "SR.SRORRES",
    "SR.SRSTRESC",
    "SR.SRSTRESN",
    "TS.TSVAL",
    "TS.TSVALNF",
    "TS.TSVALCD",
    "TS.TSVCDREF",
    "TS.TSVCDVER",
    "OI.OIVAL",
    "SUPPQUAL.QVAL"
  ],
  "Rule": [
    "TA.TABRANCH",
    "TA.TATRANS",
    "TE.TESTRL",
    "TE.TEENRL",
    "TI.TIRL",
    "TV.TVSTRL",
    "TV.TVENRL"
  ]
}